count,tInitial,tFinal,accel_x,accel_y,accel_z,accel_high,gyro_x,gyro_y,gyro_z,mag_x,mag_y,mag_z,temp,packet_num
4958,1209,1219,6,-36,897,-143,201,-817,105,-30461,-32489,-18712,902,1
4958,1258,1268,3,-32,898,175,199,-813,112,-30210,-32602,-17275,907,2
4958,1281,1290,10,-27,898,-239,197,-816,112,-30491,-32518,-18706,903,3
4958,1303,1313,8,-39,906,0,197,-816,107,-30365,-32560,-18676,904,4
4958,1326,1336,5,-35,906,-415,197,-821,110,-30318,-32381,-18413,906,5
4958,1348,1358,8,-36,901,383,196,-821,112,-30389,-32518,-18521,904,6
4958,1371,1381,13,-31,899,-335,197,-817,110,-30306,-32572,-18605,904,7
4958,1394,1404,10,-34,892,-415,205,-818,105,-30515,-32566,-18634,903,8
4958,1416,1426,5,-34,902,223,202,-822,110,-30354,-32644,-18437,904,9
4958,1439,1449,4,-45,896,767,196,-816,108,-30569,-32369,-18676,904,10
4958,1462,1471,13,-30,896,-31,189,-816,112,-30276,-32495,-18664,905,11
4958,1484,1494,9,-28,904,-191,200,-812,112,-30306,-32542,-18724,905,12
4958,1507,1517,6,-40,898,159,197,-818,108,-30455,-32674,-18509,905,13
4958,1529,1539,10,-41,902,-223,199,-818,113,-30473,-32506,-18808,903,14
4958,1556,1565,13,-30,903,63,199,-815,110,-30437,-32578,-18622,905,15
4958,1578,1588,6,-34,899,-207,193,-814,112,-30413,-32626,-18874,906,16
4958,1601,1611,6,-31,911,95,201,-820,106,-30491,-32608,-18515,904,17
4958,1624,1634,8,-26,913,-47,201,-818,113,-30294,-32620,-18796,902,18
4958,1647,1657,8,-36,905,287,200,-812,110,-30282,-32477,-18569,903,19
4958,1670,1680,8,-32,907,0,197,-820,106,-30276,-32722,-18748,900,20
4958,1693,1702,9,-29,892,47,202,-816,112,-30324,-32554,-18599,906,21
4958,1715,1725,12,-27,912,-111,200,-810,105,-30300,-32578,-18802,905,22
4958,1738,1748,5,-31,911,15,196,-817,108,-30455,-32518,-18898,902,23
4958,1761,1771,8,-37,903,-271,196,-815,109,-30593,-32536,-18634,904,24
4958,1784,1794,8,-36,906,-127,199,-814,108,-30336,-32441,-18539,903,25
4958,1817,1827,8,-28,908,-335,200,-818,112,-30240,-32459,-18545,906,26
4958,1839,1849,8,-35,915,223,195,-820,107,-30300,-32471,-18766,902,27
4958,1862,1872,8,-30,913,63,195,-821,106,-30491,-32590,-18868,904,28
4958,1889,1898,11,-30,912,-223,201,-817,108,-30282,-32614,-18802,902,29
4958,1911,1921,7,-32,913,-351,197,-813,109,-30198,-32596,-18545,903,30
4958,1934,1944,13,-31,912,191,195,-816,108,-30377,-32429,-18766,906,31
4958,1957,1967,6,-32,909,-607,199,-815,109,-30324,-32530,-18682,902,32
4958,1980,1990,11,-32,904,479,201,-818,108,-30395,-32530,-18760,904,33
4958,2003,2012,17,-32,906,351,197,-820,109,-30324,-32411,-18545,903,34
4958,2025,2035,17,-28,904,223,196,-813,108,-30407,-32423,-18503,902,35
4958,2048,2058,3,-32,896,-239,203,-817,110,-30365,-32483,-18634,901,36
4958,2071,2081,8,-24,909,191,200,-814,109,-30401,-32447,-18581,904,37
4958,2094,2104,13,-39,913,143,197,-815,113,-30479,-32435,-18718,905,38
4958,2116,2126,4,-30,915,351,199,-820,112,-30635,-32417,-18886,904,39
4958,2139,2149,12,-27,909,127,203,-824,106,-30695,-32423,-18766,904,40
4958,2162,2172,6,-39,913,239,192,-822,115,-30527,-32536,-18922,903,41
4958,2185,2195,6,-33,907,-127,200,-810,109,-30431,-32501,-18790,905,42
4958,2211,2221,13,-26,917,-287,202,-817,113,-30635,-32219,-18832,904,43
4958,2234,2244,6,-32,909,-15,195,-822,107,-30659,-32501,-18850,905,44
4958,2257,2267,3,-37,913,399,201,-821,113,-30503,-32453,-18563,905,45
4958,2279,2289,6,-36,909,-239,193,-816,110,-30623,-32435,-18664,905,46
4958,2302,2312,17,-33,913,0,195,-816,107,-30779,-32279,-18682,904,47
4958,2325,2335,13,-36,913,-111,197,-816,117,-30539,-32201,-18473,904,48
4958,2348,2358,7,-31,915,-351,197,-818,109,-30479,-32441,-18473,906,49
4958,2371,2381,9,-34,915,-255,199,-818,104,-30623,-32375,-18820,904,50
4958,2394,2403,5,-37,911,-175,200,-816,114,-30509,-32554,-18772,905,51
4958,2416,2426,6,-36,913,0,200,-821,110,-30497,-32321,-18892,903,52
4958,2439,2449,8,-34,913,-15,199,-814,108,-30342,-32387,-18766,905,53
4958,2462,2472,13,-37,913,47,196,-821,110,-30557,-32465,-18898,906,54
4958,2485,2495,8,-26,917,-47,201,-816,106,-30503,-32423,-18982,903,55
4958,2507,2517,9,-33,913,207,199,-816,110,-30743,-32477,-18593,904,56
4958,2534,2544,6,-34,904,-287,197,-817,110,-30575,-32219,-18329,905,57
4958,2557,2566,9,-33,920,255,197,-816,102,-30575,-32381,-18575,903,58
4958,2579,2589,16,-33,915,159,195,-817,108,-30491,-32327,-18443,902,59
4958,2602,2612,11,-42,922,-367,202,-825,102,-30605,-32524,-18850,905,60
4958,2625,2635,12,-30,918,-127,194,-825,109,-30521,-32614,-18892,903,61
4958,2648,2657,5,-34,913,207,194,-820,110,-30503,-32399,-18910,901,62
4958,2670,2680,12,-39,913,0,193,-817,110,-30515,-32303,-18826,905,63
4958,2693,2703,13,-36,924,-303,200,-818,113,-30641,-32381,-18844,905,64
4958,2716,2726,6,-33,924,-191,196,-817,112,-30587,-32435,-18694,904,65
4958,2739,2748,5,-35,909,-303,199,-821,112,-30719,-32339,-18820,902,66
4958,2761,2771,9,-30,920,-143,193,-816,109,-30497,-32315,-18652,903,67
4958,2784,2794,15,-34,920,367,196,-816,104,-30563,-32524,-18425,904,68
4958,2807,2817,13,-24,922,-271,193,-816,113,-30581,-32548,-18533,903,69
4958,2830,2839,8,-32,921,95,200,-813,108,-30551,-32626,-18934,904,70
4958,2856,2866,7,-33,920,367,199,-816,106,-30617,-32548,-18676,902,71
4958,2879,2889,10,-28,915,447,200,-818,113,-30701,-32536,-18497,905,72
4958,2901,2911,17,-30,915,367,204,-818,108,-30653,-32477,-18772,902,73
4958,2924,2934,8,-31,922,191,200,-818,110,-30683,-32489,-18724,906,74
4958,2947,2957,10,-36,923,-159,200,-818,106,-30593,-32369,-18934,903,75
4958,2970,2980,13,-35,926,15,196,-820,110,-30545,-32453,-19012,903,76
4958,2993,3002,11,-36,921,-623,197,-822,106,-30557,-32483,-18874,903,77
4958,3015,3025,13,-39,913,-15,194,-818,107,-30539,-32387,-18599,905,78
4958,3038,3048,5,-32,913,0,201,-813,112,-30599,-32375,-18874,905,79
4958,3061,3071,6,-32,924,47,195,-814,116,-30587,-32393,-18581,903,80
4958,3084,3093,4,-28,913,-207,199,-816,109,-30695,-32231,-18628,903,81
4958,3106,3116,15,-26,911,159,199,-823,107,-30611,-32213,-18814,901,82
4958,3129,3139,15,-33,917,-63,191,-976,148,-30683,-32405,-18898,904,83
4958,3152,3162,4,-26,920,-591,295,-835,-261,-30569,-32351,-18593,903,84
4958,3178,3188,10,-32,912,0,183,-434,-125,-30707,-32303,-18826,902,85
4958,3201,3211,4,-34,919,-239,134,-232,-99,-30539,-32291,-18742,901,86
4958,3224,3233,11,-36,923,255,96,-83,-89,-30641,-32495,-18706,903,87
4958,3246,3256,11,-36,932,15,67,34,-53,-30533,-32297,-18509,901,88
4958,3269,3279,10,-34,906,-159,45,139,-44,-30563,-32357,-18766,897,89
4958,3292,3302,48,-77,952,719,33,205,-48,-30587,-32417,-18664,901,90
4958,3327,3337,-34,-6,904,-543,9,277,-52,-30455,-32279,-19000,905,91
4958,3350,3360,50,-23,922,-239,4,299,-52,-30473,-32195,-18736,904,92
4958,3373,3383,68,-41,916,15,8,297,-45,-30623,-32309,-18587,902,93
4958,3395,3405,74,-60,946,-111,-2,301,-36,-30647,-32363,-18664,902,94
4958,3418,3428,-1,-13,911,111,-2,301,-26,-30617,-32279,-18694,905,95
4958,3441,3451,-21,-15,920,63,-1,309,-29,-30641,-32279,-18491,901,96
4958,3464,3474,-26,-4,912,-47,8,307,-22,-30701,-32405,-18383,900,97
4958,3490,3500,174,-76,939,-431,2,275,-28,-30719,-32512,-18353,902,98
4958,3513,3523,-2,-50,928,79,5,261,-18,-30623,-32506,-18437,898,99
4958,3535,3545,-33,0,890,-31,5,266,-17,-30641,-32219,-18521,902,100
4958,3558,3568,-139,0,909,-271,8,259,-13,-30617,-32471,-18593,900,101
4958,3581,3591,39,-49,932,-111,13,245,-5,-30593,-32459,-18856,903,102
4958,3604,3614,44,-60,924,47,14,215,0,-30545,-32489,-18611,900,103
4958,3626,3636,152,-60,927,271,22,212,10,-30521,-32339,-18557,903,104
4958,3649,3659,-29,0,896,-303,16,205,12,-30599,-32345,-18664,902,105
4958,3672,3682,36,-41,917,95,20,196,10,-30575,-32417,-18509,903,106
4958,3695,3705,76,-67,946,-111,27,171,20,-30557,-32327,-18652,904,107
4958,3717,3727,36,-50,935,63,33,155,27,-30689,-32315,-18688,902,108
4958,3740,3750,-17,-1,891,-175,33,152,29,-30767,-32357,-18676,903,109
4958,3763,3773,-126,-1,919,303,32,153,29,-30880,-32471,-18802,904,110
4958,3786,3796,26,-65,938,143,40,125,27,-30785,-32297,-18922,903,111
4958,3812,3822,-1,-10,921,95,32,113,20,-30635,-32315,-18730,901,112
4958,3835,3845,10,-10,926,159,43,108,18,-30659,-32417,-18820,904,113
4958,3858,3868,67,-80,930,223,43,80,14,-30767,-32219,-18652,903,114
4958,3880,3890,31,-56,924,-111,41,72,21,-30641,-32315,-18916,903,115
4958,3903,3913,-27,11,899,495,43,74,24,-30809,-32303,-18922,904,116
4958,3926,3936,25,-6,905,63,48,65,14,-30838,-32447,-18593,904,117
4958,3949,3959,64,-80,954,63,54,41,10,-30958,-32141,-18664,905,118
4958,3972,3981,-9,-13,914,-95,54,34,13,-30844,-32177,-18652,901,119
4958,3994,4004,-158,0,891,15,52,41,12,-30892,-32387,-18886,904,120
4958,4025,4034,-15,-29,912,-47,50,45,9,-30761,-32297,-18473,903,121
4958,4047,4057,1,-7,920,511,57,49,8,-30814,-32309,-18814,906,122
4958,4070,4080,22,-59,939,79,46,40,9,-30677,-32435,-18341,904,123
4958,4093,4103,4,-49,931,95,49,33,13,-30677,-32219,-18431,905,124
4958,4116,4125,-54,-6,911,-431,57,51,11,-30820,-32153,-18682,904,125
4958,4142,4152,67,-69,920,383,51,40,9,-30641,-32225,-18640,906,126
4958,4165,4175,-34,-1,913,271,46,45,13,-30797,-32279,-18652,902,127
4958,4187,4197,-25,1,917,-383,50,53,11,-30886,-32285,-18844,903,128
4958,4210,4220,71,-81,952,0,50,37,10,-30761,-32201,-18760,903,129
4958,4233,4243,-17,-53,927,111,53,41,12,-30635,-32351,-18718,902,130
4958,4256,4266,-44,8,920,-47,52,43,9,-30803,-32207,-18688,901,131
4958,4279,4288,26,-84,946,31,51,50,8,-30497,-32201,-18940,903,132
4958,4301,4311,160,-63,920,0,51,42,12,-30545,-32261,-18694,903,133
4958,4324,4334,-30,8,889,447,45,45,13,-30695,-32369,-18718,901,134
4958,4347,4357,22,-63,938,-207,50,38,9,-30695,-32069,-18946,906,135
4958,4370,4379,72,-80,914,-207,50,35,4,-30581,-32213,-18784,902,136
4958,4392,4402,-18,-2,885,-31,53,48,13,-30545,-32189,-18820,902,137
4958,4415,4425,23,-60,906,63,57,49,12,-30785,-32237,-18479,901,138
4958,4438,4448,86,-68,937,-15,50,38,9,-30647,-32063,-18557,904,139
4958,4464,4474,35,-23,900,255,49,48,10,-30689,-32099,-18281,904,140
4958,4487,4497,41,-81,946,63,61,32,11,-30785,-32111,-18383,905,141
4958,4510,4520,-1,-7,922,-111,56,43,6,-30701,-31938,-18521,902,142
4958,4532,4542,32,150,916,15,50,43,14,-30707,-32040,-18551,904,143
4958,4555,4565,28,-73,963,-287,50,46,9,-30431,-32261,-18371,903,144
4958,4578,4588,-4,-18,920,-111,59,42,16,-30641,-32249,-18503,900,145
4958,4601,4611,23,-23,910,79,49,52,4,-30497,-32189,-18599,904,146
4958,4624,4633,28,-76,952,239,52,42,8,-30641,-32327,-18670,904,147
4958,4646,4656,0,-21,917,95,54,35,13,-30731,-32063,-18892,904,148
4958,4669,4679,32,0,909,15,53,53,12,-30814,-32135,-18682,904,149
4958,4692,4702,36,-69,968,-191,53,43,10,-30683,-32309,-18545,904,150
4958,4715,4724,8,0,893,207,53,41,10,-30641,-32345,-18910,901,151
4958,4737,4747,30,3,914,-367,49,54,9,-30605,-32099,-18748,902,152
4958,4760,4770,65,-72,940,0,52,41,8,-30617,-32087,-18838,903,153
4958,4786,4796,19,-2,908,287,52,43,11,-30575,-32034,-18898,903,154
4958,4809,4819,56,-84,944,-207,53,44,13,-30683,-32081,-18628,902,155
4958,4832,4842,-4,0,890,191,52,35,10,-30659,-32183,-18796,903,156
4958,4855,4864,6,-7,913,447,45,44,9,-30635,-32081,-18593,903,157
4958,4877,4887,68,-70,926,-239,53,41,10,-30593,-32135,-18712,902,158
4958,4900,4910,-43,0,918,191,50,46,17,-30617,-32177,-18820,903,159
4958,4923,4933,30,-21,904,-63,45,40,4,-30617,-32363,-18928,903,160
4958,4945,4955,51,-61,931,-255,54,41,16,-30623,-32261,-19275,903,161
4958,4968,4978,-45,6,909,143,49,48,8,-30611,-32255,-19149,904,162
4958,4991,5001,63,-23,907,431,53,40,13,-30761,-32147,-18946,905,163
4958,5014,5024,8,-50,918,31,52,37,10,-30838,-31950,-18742,903,164
4958,5036,5046,4,-45,913,191,52,40,13,-30785,-32171,-18952,902,165
4958,5059,5069,10,-20,930,-159,50,44,13,-30755,-32075,-19006,901,166
4958,5082,5092,6,-43,934,-175,54,48,12,-30605,-32117,-19048,903,167
4958,5108,5118,17,-32,933,-79,48,46,12,-30791,-32315,-18802,904,168
4958,5131,5141,15,-34,926,-47,53,44,14,-30641,-32351,-18826,905,169
4958,5154,5163,4,-38,929,31,48,42,9,-30593,-32183,-18587,902,170
4958,5176,5186,14,-32,926,303,56,45,12,-30581,-32219,-18856,902,171
4958,5199,5209,11,-32,916,143,53,48,11,-30713,-32273,-18706,906,172
4958,5222,5232,3,-26,919,15,49,42,11,-30743,-32225,-18778,905,173
4958,5245,5254,7,-33,927,-143,48,43,8,-30707,-32285,-19048,903,174
4958,5267,5277,14,-29,929,-111,46,46,12,-30695,-32297,-18976,904,175
4958,5290,5300,10,-31,928,255,51,43,10,-30497,-32057,-18748,902,176
4958,5313,5323,7,-36,922,-79,53,45,14,-30557,-32351,-18760,906,177
4958,5336,5345,8,-38,923,0,49,44,10,-30569,-32153,-19000,903,178
4958,5358,5368,13,-31,923,-175,51,49,9,-30461,-32297,-19048,904,179
4958,5381,5391,9,-34,922,319,49,40,12,-30683,-32171,-18772,904,180
4958,5407,5417,8,-28,930,335,51,41,9,-30593,-32201,-18934,902,181
4958,5430,5440,17,-31,923,463,52,38,10,-30695,-32213,-18706,904,182
4958,5453,5463,7,-23,915,207,50,42,5,-30653,-32010,-18778,904,183
4958,5475,5485,6,-40,930,175,45,43,11,-30485,-32165,-19024,904,184
4958,5498,5508,21,-31,926,-319,53,42,10,-30749,-31872,-18880,903,185
4958,5521,5531,19,-37,930,-159,49,46,10,-30557,-31920,-18874,901,186
4958,5544,5553,15,-32,915,207,50,40,10,-30581,-32081,-18880,902,187
4958,5566,5576,15,-30,924,31,49,44,9,-30755,-31950,-18970,900,188
4958,5589,5599,4,-42,922,0,50,48,12,-30695,-32081,-18850,903,189
4958,5612,5622,9,-37,930,-511,53,51,11,-30581,-32177,-18832,903,190
4958,5635,5644,5,-34,926,511,51,44,6,-30743,-32237,-18856,904,191
4958,5657,5667,11,-30,923,-175,53,45,13,-30683,-32004,-18964,906,192
4958,5680,5690,3,-34,927,0,53,40,12,-30898,-31890,-18611,904,193
4958,5703,5712,6,-34,920,207,54,43,17,-30641,-31914,-18640,901,194
4958,5729,5739,8,-30,925,-127,53,42,12,-30677,-31956,-18784,904,195
4958,5752,5761,13,-31,926,207,57,45,9,-30910,-32052,-20023,904,196
4958,5774,5784,13,-26,928,223,49,48,11,-30677,-31842,-18742,901,197
4958,5797,5807,15,-27,920,-191,53,45,9,-30665,-31950,-18748,903,198
4958,5820,5830,7,-39,922,-111,56,43,12,-30569,-32105,-18593,901,199
4958,5842,5852,10,-32,922,111,50,44,14,-30569,-32105,-18820,901,200
4958,5865,5875,10,-32,923,0,51,41,12,-30701,-32309,-18395,902,201
4958,5888,5898,9,-32,918,-335,53,45,13,-30623,-32303,-18491,903,202
4958,5910,5920,13,-37,917,-15,48,46,11,-30557,-32255,-18742,904,203
4958,5933,5943,11,-30,915,-111,54,40,18,-30617,-32171,-18694,904,204
4958,5956,5966,10,-47,924,-223,54,46,10,-30509,-32249,-18473,903,205
4958,5979,5988,4,-41,925,239,50,48,8,-30719,-32165,-18533,903,206
4958,6001,6011,4,-32,926,-479,52,43,16,-30934,-32052,-18652,903,207
4958,6024,6034,-4,4,895,-79,44,53,10,-30862,-32195,-18599,904,208
4958,6050,6060,71,-69,941,-303,53,36,12,-30773,-32105,-18557,900,209
4958,6073,6083,-23,-30,921,-63,48,41,11,-30755,-32195,-18485,903,210
4958,6096,6105,-2,-15,918,-95,49,53,12,-30617,-32034,-18676,902,211
4958,6118,6128,-32,-6,913,-223,49,50,11,-30551,-31968,-18712,902,212
4958,6141,6151,23,-73,946,-351,57,41,14,-30832,-32117,-18646,902,213
4958,6164,6173,17,-74,949,-31,51,33,10,-30611,-32004,-18706,906,214
4958,6186,6196,-6,-39,919,303,58,38,8,-30671,-32028,-18640,904,215
4958,6209,6219,-58,-6,917,-95,50,45,12,-30689,-32105,-18748,904,216
4958,6232,6242,32,-55,919,-239,46,53,5,-30737,-31920,-18640,903,217
4958,6254,6264,45,-69,951,-335,52,41,6,-30629,-32099,-18467,905,218
4958,6277,6287,10,-47,930,-47,66,35,14,-30521,-32171,-18461,900,219
4958,6300,6310,-34,-2,931,367,49,46,16,-30611,-32010,-18515,902,220
4958,6322,6332,34,-68,913,-95,48,41,5,-30647,-32063,-18281,903,221
4958,6345,6355,52,-82,957,15,52,38,5,-30677,-32177,-18551,900,222
4958,6371,6381,-8,-4,930,111,49,46,5,-30731,-32117,-18377,900,223
4958,6394,6404,43,-15,917,-47,38,42,5,-30563,-32057,-18449,901,224
4958,6417,6427,50,-54,941,367,58,38,14,-30587,-32057,-18688,903,225
4958,6439,6449,4,-18,912,79,56,44,10,-30749,-32225,-18419,900,226
4958,6462,6472,11,-30,937,159,50,44,10,-30689,-32093,-18371,900,227
4958,6485,6495,12,-38,928,-255,54,45,12,-30737,-32099,-18718,902,228
4958,6508,6517,10,-34,922,-63,50,48,9,-30671,-32207,-18575,904,229
4958,6530,6540,8,-38,928,-351,45,41,11,-30479,-32231,-18628,905,230
4958,6553,6563,4,-28,913,-239,54,48,6,-30623,-32429,-18473,904,231
4958,6576,6586,18,-41,929,-495,53,41,9,-30695,-32153,-18682,902,232
4958,6598,6608,6,-34,927,-143,48,50,10,-30509,-32099,-18431,904,233
4958,6621,6631,4,-30,923,79,53,38,14,-30509,-32171,-18395,903,234
4958,6644,6654,6,-34,929,-47,57,46,16,-30383,-32052,-18419,903,235
4958,6667,6676,16,-36,926,527,51,42,5,-30527,-31992,-18485,903,236
4958,6693,6703,14,-33,916,191,54,42,10,-30527,-31926,-18419,901,237
4958,6716,6725,6,-29,926,-143,57,42,10,-30407,-31938,-18503,904,238
4958,6738,6748,3,-35,924,-175,50,41,9,-30449,-32057,-18491,900,239
4958,6761,6771,5,-31,917,431,53,37,10,-30371,-32099,-18545,904,240
4958,6784,6794,5,-26,925,127,53,45,8,-30455,-32016,-18634,905,241
4958,6814,6824,16,-27,931,0,46,42,11,-30551,-31998,-18850,904,242
4958,6837,6847,2,-32,923,143,49,50,10,-30575,-32052,-18778,902,243
4958,6860,6869,7,-34,928,271,54,45,10,-30581,-32022,-18485,902,244
4958,6882,6892,10,-29,928,127,52,40,6,-30641,-32063,-18832,903,245
4958,6905,6915,7,-37,924,175,50,43,11,-30629,-32255,-18820,904,246
4958,6938,6948,17,-30,917,-239,49,45,13,-30629,-32321,-18904,905,247
4958,6961,6970,6,-36,918,79,50,48,11,-30557,-32171,-19113,903,248
4958,6983,6993,10,-33,927,319,54,41,9,-30814,-32075,-18766,898,249
4958,7006,7016,10,-36,926,415,58,44,12,-30785,-32171,-18862,905,250
4958,7032,7042,9,-29,923,143,51,38,11,-30677,-32123,-18772,903,251
4958,7055,7065,9,-33,922,-47,57,46,11,-30587,-32321,-18658,903,252
4958,7078,7087,12,-36,928,95,51,48,13,-30605,-32213,-18724,905,253
4958,7100,7110,17,-28,920,175,45,45,14,-30593,-32303,-18862,901,254
4958,7123,7133,11,-35,913,-255,53,50,4,-30617,-32141,-18988,904,255
4958,7146,7155,4,-39,919,223,50,38,9,-30617,-32081,-18880,903,256
4958,7168,7178,4,-38,922,0,52,44,18,-30659,-32117,-18730,902,257
4958,7191,7201,4,-28,920,-255,50,45,11,-30527,-32022,-18886,906,258
4958,7214,7224,13,-33,928,143,51,44,11,-30695,-32057,-18658,902,259
4958,7236,7246,6,-32,922,-111,49,44,14,-30797,-32069,-18724,904,260
4958,7259,7269,10,-29,924,111,51,48,13,-30629,-32189,-18449,901,261
4958,7282,7292,14,-42,924,351,57,42,8,-30641,-31980,-18682,900,262
4958,7304,7314,13,-32,923,-79,53,38,9,-30701,-32123,-18551,904,263
4958,7331,7341,6,-26,920,-255,48,42,12,-30605,-32231,-18628,903,264
4958,7353,7363,9,-32,927,-143,52,42,8,-30575,-32141,-18718,904,265
4958,7376,7386,11,-34,925,-287,53,46,12,-30509,-32315,-18479,903,266
4958,7399,7409,7,-32,925,47,49,46,10,-30689,-32093,-18850,903,267
4958,7421,7431,8,-31,923,127,49,46,12,-30653,-32243,-18820,903,268
4958,7444,7454,13,-32,929,-95,49,40,17,-30713,-32069,-18772,903,269
4958,7467,7477,5,-29,930,255,51,42,10,-30653,-32063,-18616,901,270
4958,7489,7499,8,-32,918,-207,50,48,8,-30605,-32069,-18461,901,271
4958,7512,7522,17,-36,928,47,51,41,11,-30521,-32081,-18634,903,272
4958,7535,7545,8,-38,920,79,53,42,11,-30599,-32123,-18766,902,273
4958,7557,7567,19,-26,920,-191,51,43,11,-30569,-32075,-18634,905,274
4958,7580,7590,2,-30,921,287,51,45,13,-30683,-32201,-18646,904,275
4958,7603,7613,9,-32,916,175,54,44,10,-30533,-31944,-18395,906,276
4958,7626,7635,6,-34,920,15,52,42,9,-30533,-32105,-18275,902,277
4958,7652,7662,4,-34,924,207,50,42,16,-30485,-32057,-18407,903,278
4958,7674,7684,9,-23,925,0,56,48,10,-30431,-32111,-18347,905,279
4958,7697,7707,6,-33,926,-319,52,42,10,-30677,-31842,-18533,904,280
4958,7720,7730,6,-33,920,-31,51,41,5,-30659,-32141,-18616,903,281
4958,7743,7752,6,-34,922,-207,54,42,11,-30767,-31938,-18401,903,282
4958,7765,7775,11,-35,928,271,57,44,12,-30635,-31926,-18521,903,283
4958,7788,7798,16,-30,924,47,49,45,11,-30575,-32093,-18455,903,284
4958,7811,7820,10,-33,933,-31,52,41,8,-30605,-32081,-18718,904,285
4958,7833,7843,4,-33,911,287,50,42,12,-30581,-32141,-18407,902,286
4958,7856,7866,6,-33,928,159,59,45,16,-30605,-32207,-18784,902,287
4958,7879,7888,12,-27,931,255,54,36,12,-30605,-32153,-18431,902,288
4958,7901,7911,3,-38,917,255,51,41,8,-30497,-32129,-18706,900,289
4958,7924,7934,5,-39,917,271,45,40,9,-30509,-32219,-18605,902,290
4958,7947,7956,13,-34,924,287,49,41,11,-30575,-32219,-18838,899,291
4958,7973,7983,6,-30,933,207,54,44,10,-30593,-32171,-18886,903,292
4958,7995,8005,6,-43,921,-143,57,45,8,-30647,-32040,-19024,901,293
4958,8018,8028,7,-33,925,255,52,38,12,-30635,-32069,-18760,903,294
4958,8041,8051,9,-32,926,-63,50,40,8,-30485,-32093,-18712,902,295
4958,8063,8073,11,-23,930,-63,51,49,13,-30581,-32261,-18808,901,296
4958,8086,8096,21,-35,915,-271,48,40,11,-30419,-31920,-18850,903,297
4958,8109,8119,15,-28,926,79,58,41,12,-30479,-32046,-18664,901,298
4958,8131,8141,13,-35,929,303,57,46,13,-30581,-31890,-18874,903,299
4958,8154,8164,13,-36,917,-31,49,43,8,-30449,-32034,-18688,901,300
4958,8177,8187,17,-33,929,0,54,44,11,-30497,-32165,-18605,905,301
4958,8199,8209,8,-29,928,-31,50,44,10,-30503,-31800,-18670,901,302
4958,8222,8232,12,-25,934,-271,51,40,12,-30581,-31980,-18461,906,303
4958,8245,8255,9,-28,929,-47,53,43,6,-30539,-31986,-18527,904,304
4958,8268,8277,10,-25,921,0,53,41,9,-30689,-32255,-18808,900,305
4958,8294,8304,12,-28,920,-63,57,40,13,-30527,-31860,-18814,905,306
4958,8316,8326,16,-31,927,-95,53,42,8,-30713,-31968,-18970,904,307
4958,8339,8349,8,-24,922,0,56,37,14,-30533,-31992,-18772,904,308
4958,8362,8372,11,-35,918,0,53,44,11,-30503,-31896,-19281,903,309
4958,8384,8394,7,-33,923,-111,53,42,6,-30593,-31956,-18563,903,310
4958,8407,8417,8,-30,920,79,50,41,18,-30425,-32016,-18856,900,311
4958,8430,8440,8,-29,920,-191,56,41,16,-30515,-31938,-18880,901,312
4958,8452,8462,15,-43,925,-351,52,42,10,-30527,-32207,-18652,902,313
4958,8475,8485,13,-30,924,175,57,43,12,-30575,-31974,-18922,903,314
4958,8498,8508,17,-29,925,47,59,45,12,-30575,-31776,-18796,906,315
4958,8520,8530,13,-34,932,-111,51,54,12,-30659,-31950,-18718,903,316
4958,8543,8553,16,-34,924,0,51,44,11,-30533,-31974,-18551,904,317
4958,8566,8575,6,-41,920,31,45,46,6,-30587,-32034,-18778,902,318
4958,8588,8598,4,-31,930,-175,52,37,8,-30689,-32004,-18569,905,319
4958,8614,8624,4,-31,924,0,56,42,9,-30563,-31824,-18676,902,320
4958,8637,8647,8,-22,926,191,57,45,12,-30629,-31914,-18676,904,321
4958,8660,8670,10,-32,926,-223,48,40,14,-30545,-31968,-18646,904,322
4958,8682,8692,10,-36,920,-95,57,46,13,-30545,-32016,-18922,905,323
4958,8718,8727,16,-29,922,-175,53,43,12,-30551,-31812,-18724,905,324
4958,8740,8750,9,-35,928,-559,57,45,12,-30533,-32141,-18928,905,325
4958,8763,8773,8,-34,926,-303,56,49,11,-30617,-32189,-18700,900,326
4958,8786,8795,7,-30,930,207,52,42,16,-30479,-31938,-18856,902,327
4958,8808,8818,8,-28,922,319,49,45,13,-30521,-32087,-18694,905,328
4958,8831,8841,4,-31,928,-335,48,43,14,-30557,-31836,-18790,902,329
4958,8853,8863,16,-30,926,-447,56,40,16,-30659,-32040,-18772,904,330
4958,8876,8886,21,-36,928,-271,53,46,13,-30509,-32057,-18742,901,331
4958,8899,8909,16,-34,928,63,50,41,12,-30683,-31932,-18712,901,332
4958,8921,8931,13,-30,916,-335,50,44,12,-30701,-32075,-19024,902,333
4958,8947,8957,8,-32,928,-511,51,37,12,-30437,-31872,-18622,902,334
4958,8970,8980,1,-34,921,-239,46,37,6,-30767,-32004,-18952,904,335
4958,8993,9003,14,-37,927,-47,50,38,12,-30695,-32141,-18515,904,336
4958,9015,9025,17,-26,924,-271,49,43,12,-30623,-32129,-18593,903,337
4958,9038,9048,10,-37,927,111,50,40,12,-30761,-32004,-18826,904,338
4958,9061,9071,4,-28,924,0,50,44,12,-30761,-32075,-18748,904,339
4958,9083,9093,6,-38,930,383,53,41,14,-30683,-31968,-18569,903,340
4958,9106,9116,10,-37,922,255,52,40,9,-30689,-31992,-18622,904,341
4958,9129,9139,6,-39,926,255,57,37,13,-30659,-31830,-18539,901,342
4958,9151,9161,7,-44,920,0,51,42,13,-30533,-31872,-18748,902,343
4958,9174,9184,10,-32,925,-431,49,38,5,-30647,-32052,-18694,901,344
4958,9197,9207,21,-25,930,-47,58,42,17,-30761,-30705,-18898,901,345
4958,9219,9229,2,-32,917,-63,49,44,4,-30791,-32093,-18790,899,346
4958,9246,9255,6,-30,921,255,52,38,9,-30611,-31980,-18784,902,347
4958,9268,9278,14,-43,927,31,49,42,14,-30665,-32249,-18832,905,348
4958,9291,9301,28,-32,919,-207,51,41,9,-30527,-32129,-18784,904,349
4958,9314,9324,15,-32,935,271,54,38,5,-30569,-32147,-18874,900,350
4958,9336,9346,13,-33,919,-47,61,37,13,-30773,-32225,-18736,903,351
4958,9359,9369,10,-39,921,-127,50,42,9,-30641,-32279,-18611,903,352
4958,9382,9392,5,-31,924,383,49,42,10,-30467,-32249,-18946,902,353
4958,9404,9414,6,-30,922,223,51,42,14,-30719,-31938,-18688,903,354
4958,9427,9437,10,-41,920,79,56,41,11,-30593,-31890,-18676,902,355
4958,9450,9460,7,-34,922,-175,51,41,5,-30725,-31944,-18712,903,356
4958,9472,9482,11,-21,917,63,53,40,13,-30563,-32034,-18880,902,357
4958,9495,9505,19,-35,929,-367,53,41,14,-30725,-32063,-18533,902,358
4958,9518,9527,2,-31,916,79,43,36,11,-30749,-32135,-18718,904,359
4958,9540,9550,8,-31,917,-79,54,41,13,-30581,-32147,-18694,905,360
4958,9567,9576,10,-30,919,271,52,43,6,-30838,-32063,-18443,901,361
4958,9589,9599,13,-31,936,143,52,40,14,-30767,-32034,-18664,905,362
4958,9619,9629,15,-34,926,15,45,44,10,-30683,-32028,-18844,902,363
4958,9642,9652,13,-40,930,-95,46,42,13,-30623,-32034,-18664,903,364
4958,9665,9674,15,-28,922,143,50,37,8,-30629,-31938,-18521,901,365
4958,9687,9697,9,-32,925,159,61,36,17,-30348,-32129,-18581,903,366
4958,9710,9720,7,-37,930,0,53,44,11,-30461,-32219,-18646,904,367
4958,9733,9742,7,-42,921,79,48,37,9,-30617,-32171,-18784,902,368
4958,9755,9765,13,-35,924,447,52,44,14,-30707,-32219,-18563,905,369
4958,9778,9788,9,-37,925,95,49,42,9,-30389,-32117,-18413,902,370
4958,9801,9810,5,-32,919,111,57,43,8,-30707,-31950,-18772,903,371
4958,9823,9833,12,-32,928,15,53,43,6,-30671,-32081,-18682,904,372
4958,9846,9856,8,-34,925,255,51,44,13,-30539,-32225,-18760,901,373
4958,9868,9878,10,-30,928,63,46,43,8,-30707,-32201,-18359,902,374
4958,9895,9904,8,-28,920,-175,54,42,9,-30437,-32189,-18491,903,375
4958,9917,9927,10,-32,924,-223,53,41,11,-30533,-31920,-18652,902,376
4958,9940,9950,10,-30,940,-287,50,42,13,-30587,-32093,-18664,904,377
4958,9962,9972,4,-34,924,-47,54,37,10,-30563,-32129,-18215,902,378
4958,9985,9995,8,-36,929,511,51,37,4,-30725,-31968,-18874,902,379
4958,10008,10018,10,-37,927,-191,50,37,11,-30575,-31914,-18593,905,380
4958,10030,10040,6,-43,924,175,51,49,10,-30611,-31962,-18605,902,381
4958,10053,10063,3,-30,929,-143,52,41,11,-30503,-32063,-18634,903,382
4958,10076,10085,15,-36,927,15,52,44,13,-30671,-32111,-18569,900,383
4958,10098,10108,4,-35,931,63,52,43,16,-30509,-32141,-18616,905,384
4958,10121,10131,6,-28,924,-175,54,46,11,-30497,-31818,-18850,904,385
4958,10144,10153,13,-32,927,159,52,43,9,-30539,-31734,-18766,902,386
4958,10166,10176,10,-24,927,-527,50,46,14,-30731,-31752,-18622,899,387
4958,10189,10199,10,-26,914,63,49,45,12,-30581,-31836,-18557,903,388
4958,10215,10225,12,-36,921,-303,45,38,9,-30527,-32022,-18461,903,389
4958,10238,10247,10,-34,930,-111,48,41,12,-30569,-31944,-18479,903,390
4958,10260,10270,8,-34,930,15,49,44,8,-30509,-32135,-18557,902,391
4958,10283,10293,9,-32,926,-47,51,44,10,-30653,-32171,-18808,903,392
4958,10305,10315,4,-23,919,255,51,41,11,-30647,-32069,-18670,902,393
4958,10328,10338,13,-32,922,319,52,41,13,-30689,-32093,-18581,903,394
4958,10351,10360,6,-36,928,143,51,40,10,-30521,-32069,-18670,901,395
4958,10373,10383,8,-30,928,95,48,33,12,-30767,-32177,-18868,902,396
4958,10396,10406,6,-32,931,95,51,37,10,-30761,-32117,-18748,904,397
4958,10418,10428,13,-35,919,207,58,41,11,-30761,-32153,-18706,900,398
4958,10441,10451,4,-31,933,79,52,38,16,-30515,-31932,-18533,902,399
4958,10464,10474,5,-33,932,143,51,44,18,-30629,-32057,-18820,904,400
4958,10486,10496,2,-45,933,-31,57,40,10,-30683,-32034,-18892,902,401
4958,10509,10519,6,-42,945,-175,50,49,10,-30737,-32034,-19059,902,402
4958,10535,10545,5,-39,929,-207,49,37,9,-30659,-31722,-18844,902,403
4958,10558,10568,6,-32,928,-111,58,38,8,-30593,-31980,-18814,904,404
4958,10580,10590,6,-28,919,159,50,41,10,-30791,-31932,-19018,903,405
4958,10603,10613,4,-24,920,-335,46,42,9,-30641,-31998,-18904,904,406
4958,10626,10635,4,-28,922,15,56,43,13,-30743,-32141,-18622,902,407
4958,10648,10658,7,-38,927,15,45,42,10,-30892,-32016,-18934,903,408
4958,10671,10681,5,-36,920,0,49,45,8,-30755,-32034,-18892,904,409
4958,10693,10703,13,-27,923,271,53,41,8,-30719,-32052,-18964,905,410
4958,10716,10726,4,-27,918,-223,52,48,10,-30689,-32111,-18646,902,411
4958,10739,10749,8,-32,918,-223,46,42,11,-30779,-31944,-18527,904,412
4958,10761,10771,7,-29,925,-367,56,43,16,-30749,-32105,-18670,901,413
4958,10784,10794,19,-33,935,351,53,44,10,-30719,-32117,-18688,901,414
4958,10807,10816,5,-30,928,111,52,43,12,-30689,-32075,-18634,904,415
4958,10829,10839,16,-30,930,-63,51,40,9,-30683,-32093,-18874,904,416
4958,10855,10865,2,-33,915,239,51,40,9,-30575,-31896,-18503,905,417
4958,10878,10888,22,-26,926,-255,51,44,8,-30599,-32052,-18611,902,418
4958,10901,10910,12,-28,925,47,58,43,11,-30683,-31854,-18796,900,419
4958,10923,10933,7,-39,929,-191,52,42,11,-30725,-31962,-18760,904,420
4958,10946,10956,8,-25,928,239,46,41,5,-30521,-32016,-18569,903,421
4958,10968,10978,16,-28,920,47,50,40,9,-30509,-32028,-18479,902,422
4958,10991,11001,4,-36,923,191,53,36,10,-30695,-32063,-18437,901,423
4958,11014,11023,13,-34,921,-95,52,45,13,-30761,-31872,-18593,902,424
4958,11036,11046,6,-38,926,47,51,40,9,-30785,-32004,-18473,902,425
4958,11059,11069,8,-36,922,271,50,40,10,-30731,-32165,-18670,904,426
4958,11081,11091,8,-36,928,-223,53,44,12,-30629,-32075,-18611,900,427
4958,11104,11114,9,-26,911,-575,48,41,11,-30587,-31920,-18533,901,428
4958,11127,11136,10,-32,928,255,50,43,6,-30749,-31950,-18479,904,429
4958,11153,11163,4,-35,928,175,50,38,8,-30862,-31962,-18700,903,430
4958,11175,11185,4,-30,931,207,58,45,13,-30593,-31968,-18521,902,431
4958,11198,11208,6,-36,926,-239,52,45,11,-30779,-32111,-18527,901,432
4958,11221,11231,17,-39,917,-191,48,43,11,-30395,-31908,-18670,902,433
4958,11243,11253,17,-28,925,-303,48,44,10,-30449,-32165,-18545,901,434
4958,11266,11276,10,-32,930,-47,51,46,10,-30623,-32004,-18958,902,435
4958,11289,11298,10,-41,930,95,46,43,11,-30671,-32099,-18826,904,436
4958,11311,11321,4,-33,924,0,50,48,11,-30527,-31938,-18575,904,437
4958,11334,11344,12,-30,925,111,54,43,9,-30629,-31932,-19077,904,438
4958,11356,11366,6,-30,924,255,52,43,13,-30401,-32111,-18964,904,439
4958,11379,11389,7,-27,918,-575,53,41,11,-30443,-31956,-18916,902,440
4958,11402,11411,7,-35,926,-463,57,44,11,-30629,-32046,-18754,900,441
4958,11424,11434,10,-44,930,255,53,45,14,-30635,-32034,-18593,903,442
4958,11447,11457,18,-30,925,207,49,40,5,-30629,-31902,-18766,903,443
4958,11473,11483,3,-31,924,0,57,41,10,-30401,-31980,-18778,902,444
4958,11495,11505,4,-36,930,-127,56,48,14,-30479,-31980,-19113,902,445
4958,11518,11528,10,-34,918,335,56,42,10,-30491,-31884,-18880,904,446
4958,11541,11551,4,-33,924,-111,54,42,18,-30611,-31896,-18395,903,447
4958,11563,11573,4,-34,929,-47,52,41,10,-30413,-31968,-18808,902,448
4958,11586,11596,8,-25,922,175,49,45,10,-30383,-32063,-18491,905,449
4958,11609,11618,13,-34,931,-95,52,42,5,-30413,-31998,-18461,904,450
4958,11631,11641,11,-37,929,159,54,40,12,-30509,-31962,-18581,902,451
4958,11654,11664,10,-26,925,0,57,44,14,-30599,-32022,-18587,903,452
4958,11677,11686,13,-33,927,47,52,42,13,-30539,-31920,-18682,903,453
4958,11699,11709,6,-33,918,159,52,46,13,-30419,-31764,-18622,902,454
4958,11722,11732,13,-28,920,0,52,40,5,-30252,-31818,-18353,902,455
4958,11744,11754,7,-32,928,127,54,41,11,-30264,-31878,-18419,901,456
4958,11767,11777,6,-35,930,-63,57,41,13,-30282,-32046,-18485,905,457
4958,11802,11812,5,-32,925,-143,54,42,12,-30461,-32165,-18341,901,458
4958,11825,11834,6,-33,925,15,51,37,9,-30461,-31992,-18467,900,459
4958,11848,11857,9,-27,922,63,48,40,13,-30581,-32022,-18317,903,460
4958,11870,11880,19,-30,921,0,57,38,12,-30437,-31902,-18437,904,461
4958,11893,11903,8,-34,930,95,56,44,9,-30527,-31878,-18371,900,462
4958,11916,11926,6,-36,920,-111,53,36,11,-30575,-31932,-18473,904,463
4958,11939,11949,10,-34,928,159,51,43,10,-30497,-32046,-18449,901,464
4958,11962,11972,8,-40,925,95,46,43,9,-30665,-32040,-18515,904,465
4958,11985,11995,8,-37,925,31,48,50,9,-30377,-32069,-18814,903,466
4958,12008,12018,8,-32,933,-527,56,33,13,-30629,-32177,-18700,903,467
4958,12031,12041,5,-34,924,63,52,41,5,-30485,-31998,-18712,903,468
4958,12064,12074,6,-39,919,207,46,35,10,-30491,-31788,-18616,903,469
4958,12087,12097,10,-33,912,-175,52,42,5,-30701,-31908,-18581,903,470
4958,12110,12120,7,-31,919,47,51,43,6,-30569,-31926,-18599,904,471
4958,12138,12148,13,-26,922,399,53,44,9,-30737,-31776,-18611,903,472
4958,12161,12171,13,-38,924,-351,53,40,12,-30449,-32040,-18341,901,473
4958,12184,12194,7,-28,925,-143,46,41,5,-30731,-31992,-18652,904,474
4958,12207,12217,6,-36,938,-111,56,42,8,-30515,-32129,-18353,904,475
4958,12230,12240,15,-26,919,0,51,36,11,-30641,-31980,-18503,902,476
4958,12253,12263,11,-33,935,15,51,43,9,-30653,-32004,-18563,903,477
4958,12276,12286,15,-37,922,319,57,41,14,-30641,-32285,-18688,904,478
4958,12299,12308,2,-38,924,223,51,40,8,-30701,-32111,-18700,904,479
4958,12322,12331,8,-35,925,15,51,42,12,-30952,-32183,-18581,903,480
4958,12345,12354,5,-28,917,319,50,43,11,-30695,-32135,-18904,899,481
4958,12367,12377,11,-31,922,463,54,44,12,-30683,-32046,-18754,904,482
4958,12390,12400,16,-34,933,175,49,44,9,-30737,-31950,-18479,903,483
4958,12421,12431,10,-39,926,0,48,40,10,-30659,-31914,-18628,905,484
4958,12444,12453,10,-32,930,-47,50,38,13,-30575,-32081,-18724,900,485
4958,12472,12482,4,-26,919,47,53,41,14,-30719,-32117,-18796,904,486
4958,12495,12505,11,-30,932,47,58,38,3,-30826,-32111,-19149,901,487
4958,12518,12528,13,-37,922,-383,51,46,16,-30832,-32273,-18910,903,488
4958,12541,12550,8,-27,924,-31,54,45,6,-30551,-32303,-18766,904,489
4958,12564,12573,9,-32,927,47,50,43,5,-30683,-32225,-19125,901,490
4958,12586,12596,3,-25,928,-207,57,40,16,-30485,-32111,-18958,901,491
4958,12609,12619,13,-30,928,-63,49,44,8,-30599,-32099,-18784,904,492
4958,12632,12642,17,-39,913,255,51,43,16,-30641,-32123,-19215,904,493
4958,12655,12665,15,-36,922,63,50,45,12,-30713,-32040,-18748,904,494
4958,12678,12688,16,-37,925,63,50,45,10,-30485,-32117,-19131,901,495
4958,12701,12711,6,-29,930,239,51,48,11,-30647,-32075,-18862,903,496
4958,12724,12734,16,-33,930,-191,57,45,12,-30593,-30693,-18874,904,497
4958,12747,12757,16,-28,929,95,51,43,10,-30479,-32105,-18892,903,498
4958,12770,12780,13,-32,925,207,53,45,10,-30695,-32279,-18850,903,499
4958,12798,12808,8,-36,928,-15,53,41,13,-30581,-32081,-18862,900,500
4958,12821,12831,10,-27,922,-15,50,40,6,-30779,-32093,-18814,903,501
4958,12844,12854,6,-38,928,79,53,44,11,-30641,-32057,-18850,902,502
4958,12867,12877,16,-37,945,-47,49,50,6,-30755,-32075,-18670,904,503
4958,12890,12900,10,-41,930,223,52,50,10,-30455,-31926,-18766,901,504
4958,12913,12923,6,-32,924,255,52,44,10,-30449,-32010,-18742,902,505
4958,12936,12946,20,-40,926,-431,54,41,9,-30599,-32081,-18802,903,506
4958,12959,12968,13,-32,917,0,51,48,12,-30336,-32057,-18706,904,507
4958,12982,12991,17,-32,928,-303,52,37,10,-30515,-32034,-18862,902,508
4958,13004,13014,7,-28,924,-207,51,44,10,-30479,-31938,-19012,903,509
4958,13027,13037,6,-25,920,47,48,45,12,-30491,-32022,-18904,904,510
4958,13050,13060,15,-26,925,223,56,34,9,-30611,-31998,-18970,902,511
4958,13073,13083,8,-28,915,31,50,48,11,-30623,-32117,-18778,906,512
4958,13096,13106,12,-40,927,0,53,41,12,-30545,-32063,-19275,903,513
4958,13118,13128,13,-28,928,-63,49,44,6,-30569,-31980,-19191,904,514
4958,13141,13150,10,-34,924,143,56,41,16,-30677,-31968,-19179,902,515
4958,13163,13173,10,-41,935,-159,46,41,10,-30629,-32016,-19413,904,516
4958,13186,13196,44,-32,903,287,51,48,12,-30563,-31962,-19101,904,517
4958,13209,13219,0,-23,902,-255,50,49,8,-30491,-32028,-19101,904,518
4958,13232,13242,8,-36,935,79,48,37,9,-30611,-32081,-18868,902,519
4958,13255,13265,7,-32,935,-111,56,44,14,-30605,-31932,-18664,904,520
4958,13278,13288,9,-33,918,31,59,40,14,-30671,-32159,-19000,904,521
4958,13301,13311,5,-34,925,-495,52,40,13,-30677,-31980,-18760,904,522
4958,13324,13334,21,-22,949,15,53,40,11,-30743,-32213,-19024,901,523
4958,13347,13356,15,-34,928,319,52,46,8,-30731,-32034,-18976,902,524
4958,13370,13379,8,-30,934,271,52,42,4,-30677,-32123,-18880,902,525
4958,13392,13402,11,-28,931,511,49,42,11,-30809,-32093,-18778,904,526
4958,13421,13430,15,-24,926,31,56,45,11,-30713,-32034,-18988,903,527
4958,13443,13453,5,-27,926,63,56,41,14,-30791,-32171,-18778,903,528
4958,13466,13476,4,-41,939,-335,52,45,9,-30850,-31836,-19263,901,529
4958,13489,13499,6,-39,926,143,54,35,12,-30731,-31980,-19359,904,530
4958,13512,13522,15,-35,917,127,49,40,10,-30683,-32046,-19137,899,531
4958,13535,13545,7,-34,924,159,51,37,9,-30677,-32016,-19006,903,532
4958,13558,13568,10,-33,920,143,54,41,11,-30641,-32099,-18784,902,533
4958,13581,13591,15,-32,920,511,52,43,8,-30785,-32165,-19119,903,534
4958,13604,13613,13,-35,933,-47,49,45,10,-30773,-32165,-18766,902,535
4958,13626,13636,5,-34,936,-79,53,41,8,-30647,-32046,-18784,904,536
4958,13649,13659,10,-40,922,-111,52,49,10,-30719,-32123,-18832,902,537
4958,13672,13682,17,-31,906,-303,46,45,16,-30623,-32117,-19012,904,538
4958,13695,13705,18,-21,917,-319,50,38,10,-30868,-31980,-18922,901,539
4958,13718,13728,15,-34,928,31,57,42,16,-30677,-31872,-18599,904,540
4958,13746,13756,13,-42,920,-383,50,49,11,-30593,-31992,-18748,903,541
4958,13769,13779,19,-37,924,-159,54,45,11,-30695,-32177,-18694,901,542
4958,13792,13802,7,-30,919,-255,50,41,14,-30689,-32075,-18790,901,543
4958,13815,13825,7,-37,924,-143,53,43,8,-30575,-32153,-18491,903,544
4958,13838,13847,4,-32,926,-239,51,45,10,-30653,-32099,-18952,904,545
4958,13860,13870,6,-36,932,-223,52,37,9,-30569,-32010,-18790,902,546
4958,13883,13893,10,-36,922,-111,48,43,14,-30695,-32022,-18640,901,547
4958,13906,13916,15,-35,919,-319,49,40,10,-30629,-31956,-18748,903,548
4958,13929,13939,6,-39,919,0,58,49,9,-30635,-32057,-18832,904,549
4958,13952,13962,12,-35,922,31,50,37,14,-30647,-31854,-18868,901,550
4958,13975,13985,7,-32,919,-127,50,44,12,-30623,-31908,-18742,903,551
4958,13998,14007,7,-30,926,175,50,37,6,-30761,-32243,-18946,904,552
4958,14021,14030,4,-34,933,63,53,37,5,-30713,-31980,-18970,904,553
4958,14043,14053,12,-29,933,175,46,40,10,-30653,-32093,-18784,903,554
4958,14072,14081,3,-28,922,111,49,41,13,-30629,-31854,-18778,901,555
4958,14094,14104,8,-28,922,31,45,45,10,-30503,-32034,-18946,901,556
4958,14130,14140,4,-31,925,143,56,42,10,-30731,-32016,-18886,903,557
4958,14153,14163,10,-41,929,-63,58,38,9,-30617,-31968,-18880,901,558
4958,14176,14186,4,-32,930,-191,51,40,6,-30665,-31830,-18814,901,559
4958,14199,14208,10,-33,927,335,54,48,11,-30743,-31848,-18634,901,560
4958,14222,14232,6,-36,929,-207,51,37,10,-30665,-32129,-18694,905,561
4958,14245,14254,15,-28,922,159,50,40,10,-30629,-32093,-18730,899,562
4958,14268,14277,10,-37,922,-79,51,43,12,-30695,-32105,-18700,902,563
4958,14290,14300,12,-37,923,287,54,38,6,-30581,-32189,-18688,905,564
4958,14313,14323,10,-37,927,-63,50,42,9,-30587,-32099,-18958,903,565
4958,14336,14346,10,-41,928,79,51,41,16,-30491,-32153,-18413,904,566
4958,14359,14369,4,-32,931,-175,48,37,5,-30605,-31896,-18934,901,567
4958,14382,14392,45,-52,932,-127,45,42,12,-30575,-32081,-18928,900,568
4958,14410,14420,-45,-6,916,-127,51,20,6,-30419,-32040,-19245,902,569
4958,14433,14443,65,-32,924,335,57,46,14,-30431,-31890,-18982,904,570
4958,14456,14466,-43,-43,933,-287,51,48,13,-30749,-32225,-19000,904,571
4958,14479,14489,26,-25,935,175,45,38,9,-30743,-32081,-18742,902,572
4958,14502,14512,24,-24,921,15,60,41,10,-30731,-32159,-18802,901,573
4958,14525,14535,6,-38,920,47,61,38,3,-30701,-32159,-18922,902,574
4958,14548,14557,13,-38,932,255,46,42,10,-30635,-32075,-18898,902,575
4958,14570,14580,6,-30,924,207,51,41,8,-30641,-31980,-18964,901,576
4958,14593,14603,6,-31,921,287,51,41,9,-30569,-32087,-18916,902,577
4958,14616,14626,7,-31,930,95,49,40,8,-30611,-32105,-18940,903,578
4958,14639,14649,4,-30,921,127,51,42,8,-30599,-32189,-18868,902,579
4958,14662,14672,18,-30,924,255,57,42,9,-30671,-32010,-18748,901,580
4958,14685,14695,7,-30,927,-143,49,37,11,-30473,-32093,-18964,902,581
4958,14708,14718,10,-39,922,223,51,36,16,-30605,-32135,-19191,902,582
4958,14736,14746,8,-32,930,15,53,35,6,-30581,-32189,-18754,905,583
4958,14759,14769,6,-40,922,47,48,44,14,-30635,-32309,-19077,904,584
4958,14782,14792,15,-29,926,-255,58,45,18,-30575,-32291,-18994,904,585
4958,14805,14815,10,-39,928,-175,50,40,10,-30461,-32231,-18934,902,586
4958,14828,14837,8,-28,931,-223,51,40,14,-30563,-32345,-18934,902,587
4958,14850,14860,8,-26,918,-159,59,44,12,-30599,-32387,-18796,903,588
4958,14873,14883,8,-33,928,31,48,45,13,-30767,-32297,-18922,902,589
4958,14896,14906,10,-31,935,111,53,42,14,-30820,-32273,-18760,902,590
4958,14919,14929,13,-27,921,-303,54,40,13,-30731,-32237,-19065,903,591
4958,14942,14952,10,-39,930,-255,46,42,6,-30749,-32022,-18844,901,592
4958,14965,14975,15,-41,918,-47,50,42,10,-30569,-32327,-19054,903,593
4958,14988,14998,19,-31,920,255,53,37,10,-30743,-32147,-18952,903,594
4958,15011,15021,5,-28,921,-303,51,42,10,-30581,-32297,-18652,901,595
4958,15034,15043,9,-32,928,111,53,40,11,-30701,-32141,-18958,900,596
4958,15062,15072,13,-41,927,415,57,40,11,-30737,-32327,-18742,903,597
4958,15085,15094,3,-31,928,-255,53,42,14,-30749,-32273,-18838,902,598
4958,15107,15117,19,-32,930,303,53,42,4,-30599,-32453,-18539,903,599
4958,15130,15140,10,-28,924,-95,51,45,12,-30862,-32297,-18724,903,600
4958,15153,15163,6,-28,926,367,53,40,9,-30743,-32004,-18754,904,601
4958,15176,15186,10,-33,920,-63,51,34,12,-30928,-32087,-18802,905,602
4958,15199,15209,5,-34,924,-47,53,43,12,-30838,-32195,-18898,905,603
4958,15222,15232,7,-39,930,63,54,35,10,-30880,-32213,-18928,905,604
4958,15245,15254,8,-30,923,271,51,46,14,-30874,-32129,-19101,902,605
4958,15275,15285,18,-31,928,271,49,44,14,-30797,-32213,-18940,904,606
4958,15298,15308,4,-37,922,-175,52,45,16,-30677,-32261,-19071,903,607
4958,15321,15331,19,-36,915,-223,51,42,13,-30785,-32273,-18826,902,608
4958,15344,15353,4,-36,927,63,51,49,13,-30791,-32231,-18868,903,609
4958,15372,15382,6,-38,929,191,51,45,13,-30569,-32255,-18856,905,610
4958,15395,15404,10,-34,935,0,50,42,16,-30731,-32141,-18862,901,611
4958,15417,15427,8,-35,922,0,51,40,12,-30695,-32189,-18820,901,612
4958,15440,15450,6,-33,920,127,53,36,6,-30826,-32321,-19024,900,613
4958,15463,15473,6,-34,935,287,52,42,9,-30695,-32201,-18898,903,614
4958,15486,15496,10,-33,930,287,57,41,12,-30749,-32453,-18898,901,615
4958,15509,15519,6,-32,928,-175,52,42,13,-30826,-32465,-19089,902,616
4958,15532,15542,7,-30,922,271,50,44,16,-30617,-32231,-18748,901,617
4958,15555,15564,9,-32,926,-47,57,45,13,-30707,-32028,-18940,902,618
4958,15577,15587,17,-31,918,-223,57,37,11,-30713,-32063,-18934,901,619
4958,15600,15610,4,-32,922,-511,51,43,13,-30617,-32147,-18748,903,620
4958,15623,15633,14,-36,937,415,58,46,16,-30719,-32183,-18886,904,621
4958,15646,15656,4,-26,922,207,52,41,8,-30785,-32417,-18862,902,622
4958,15669,15679,7,-36,929,-191,53,37,6,-30731,-32069,-18940,903,623
4958,15697,15707,13,-35,926,-79,52,34,12,-30868,-32141,-18910,900,624
4958,15720,15730,13,-34,933,31,60,45,12,-30856,-31914,-18611,902,625
4958,15743,15753,14,-33,925,255,53,43,8,-30791,-32034,-18694,901,626
4958,15766,15776,12,-32,928,319,53,36,9,-30677,-32063,-18772,903,627
4958,15789,15798,7,-39,920,-335,51,38,6,-30737,-32093,-18581,902,628
4958,15811,15821,15,-34,921,175,53,44,17,-30677,-32081,-18658,901,629
4958,15834,15844,6,-37,928,-367,54,42,12,-30533,-32249,-18527,903,630
4958,15857,15867,9,-39,925,-223,51,45,11,-30874,-32159,-18581,902,631
4958,15880,15890,7,-27,921,191,48,45,13,-30779,-32213,-18874,903,632
4958,15903,15913,9,-32,924,175,56,41,10,-30713,-32135,-18664,901,633
4958,15926,15936,9,-32,919,-31,51,42,17,-30886,-32129,-18569,903,634
4958,15949,15958,8,-24,926,287,58,42,5,-30832,-32111,-18820,903,635
4958,15971,15981,11,-36,921,95,54,42,9,-30820,-32129,-18784,901,636
4958,15994,16004,18,-34,934,0,50,41,12,-30695,-32243,-18527,902,637
4958,16023,16032,4,-44,923,159,54,38,6,-30707,-32147,-18736,900,638
4958,16045,16055,4,-28,917,63,53,41,12,-30611,-32141,-18844,901,639
4958,16068,16078,8,-29,920,0,45,41,12,-30713,-32016,-18820,905,640
4958,16091,16101,5,-27,914,63,52,43,16,-30383,-32171,-18784,903,641
4958,16114,16124,7,-31,926,-351,58,42,12,-30563,-32034,-18994,903,642
4958,16137,16146,9,-36,922,79,50,43,12,-30850,-31866,-18910,902,643
4958,16159,16169,4,-30,922,-319,53,45,12,-30641,-32237,-18688,902,644
4958,16182,16192,13,-34,938,31,54,45,11,-30671,-32171,-18898,901,645
4958,16205,16215,11,-28,925,-207,48,38,13,-30826,-31968,-18796,905,646
4958,16228,16238,13,-30,920,-303,57,44,11,-30623,-32147,-18503,905,647
4958,16251,16261,9,-34,921,175,57,46,10,-30779,-32081,-19048,904,648
4958,16274,16283,6,-32,914,79,51,37,10,-30467,-32022,-18778,902,649
4958,16296,16306,10,-34,925,-31,54,43,12,-30539,-32004,-18646,900,650
4958,16319,16329,12,-30,926,-159,53,43,12,-30569,-32147,-18658,906,651
4958,16347,16357,2,-29,929,63,46,43,12,-30551,-32075,-18754,900,652
4958,16370,16380,6,-26,928,-271,54,37,14,-30767,-32189,-18545,903,653
4958,16393,16403,7,-38,927,31,59,44,12,-30809,-32105,-18700,903,654
4958,16416,16426,4,-41,930,-447,51,46,18,-30701,-32022,-18940,903,655
4958,16439,16448,13,-39,925,47,48,44,6,-30731,-32141,-18676,903,656
4958,16461,16471,18,-39,937,271,45,42,12,-30671,-32243,-18587,903,657
4958,16484,16494,20,-29,932,319,49,41,5,-30539,-31944,-18646,901,658
4958,16507,16517,11,-28,919,319,57,42,10,-30707,-32159,-18646,902,659
4958,16530,16540,6,-34,924,175,53,42,10,-30641,-31974,-18640,903,660
4958,16553,16563,18,-34,922,0,53,37,11,-30593,-31980,-18599,903,661
4958,16576,16585,7,-32,927,95,59,41,13,-30629,-31974,-18485,902,662
4958,16598,16608,19,-24,927,175,54,38,9,-30569,-32063,-18443,902,663
4958,16621,16631,5,-36,925,383,51,44,11,-30719,-32081,-18395,906,664
4958,16644,16654,5,-33,916,255,58,45,9,-30575,-31842,-18688,904,665
4958,16672,16682,4,-37,931,-303,53,41,9,-30485,-31974,-18718,901,666
4958,16695,16705,5,-38,925,15,49,45,10,-30569,-32177,-18622,904,667
4958,16718,16728,17,-33,926,63,52,41,11,-30575,-31902,-18245,903,668
4958,16741,16750,14,-27,928,207,45,45,11,-30521,-32028,-18922,903,669
4958,16763,16773,10,-31,926,255,48,48,10,-30659,-32010,-18796,903,670
4958,16786,16796,5,-34,931,-47,54,41,12,-30647,-32022,-18533,902,671
4958,16809,16819,4,-38,928,-559,48,35,9,-30737,-32249,-18646,903,672
4958,16832,16842,5,-30,936,-111,49,38,12,-30659,-31920,-18826,902,673
4958,16855,16865,7,-36,930,-191,58,44,4,-30922,-32040,-18652,906,674
4958,16878,16888,6,-32,928,223,50,45,12,-30707,-32219,-18670,901,675
4958,16901,16910,0,-25,925,-479,49,41,18,-30779,-32052,-17240,905,676
4958,16923,16933,6,-34,923,15,51,40,6,-30749,-32123,-19101,902,677
4958,16946,16956,8,-35,936,47,62,42,9,-30635,-32123,-18808,903,678
4958,16969,16979,6,-32,921,79,42,40,13,-30593,-31992,-19054,905,679
4958,16997,17007,11,-30,937,543,52,48,12,-30665,-31932,-19161,904,680
4958,17020,17030,16,-27,917,0,50,40,8,-30707,-31938,-18874,903,681
4958,17043,17053,4,-30,913,-239,50,38,5,-30659,-31776,-18706,900,682
4958,17066,17076,5,-38,930,127,57,46,13,-30725,-32022,-18940,904,683
4958,17089,17098,6,-28,924,367,46,44,9,-30611,-31962,-18958,904,684
4958,17111,17121,4,-23,922,-319,52,40,8,-30707,-32135,-18844,903,685
4958,17134,17144,10,-34,924,287,60,46,8,-30928,-32075,-18688,904,686
4958,17157,17167,9,-30,931,255,50,43,9,-30904,-32219,-18874,901,687
4958,17180,17190,8,-30,929,0,50,38,11,-30743,-31992,-18994,903,688
4958,17203,17213,13,-33,930,143,52,42,10,-30629,-32237,-18868,902,689
4958,17226,17236,5,-34,928,191,49,46,14,-30725,-32225,-18718,903,690
4958,17249,17258,8,-30,920,191,51,44,12,-30785,-32165,-18712,904,691
4958,17271,17281,15,-37,921,127,56,44,9,-30683,-32177,-18317,905,692
4958,17300,17310,6,-34,919,0,48,42,11,-30809,-31980,-18533,901,693
4958,17322,17332,10,-26,920,127,54,43,14,-30647,-32207,-18557,904,694
4958,17345,17355,6,-34,933,63,52,38,16,-30797,-31962,-18808,903,695
4958,17368,17378,12,-28,924,-63,51,40,11,-30856,-31932,-18958,901,696
4958,17391,17401,9,-27,930,0,56,42,13,-30844,-32243,-18844,903,697
4958,17414,17424,12,-34,924,-143,53,45,12,-30856,-32255,-18706,902,698
4958,17437,17446,15,-35,919,-223,53,43,12,-30826,-32040,-18712,903,699
4958,17459,17469,8,-27,924,-207,56,41,10,-30743,-32105,-18533,903,700
4958,17482,17492,6,-31,925,-287,56,41,12,-30623,-31998,-18634,905,701
4958,17505,17515,9,-37,927,0,51,45,9,-30695,-31944,-18545,904,702
4958,17528,17538,10,-28,917,-63,51,43,11,-30809,-31998,-18419,902,703
4958,17551,17561,13,-36,926,239,48,44,9,-30850,-31818,-18485,901,704
4958,17574,17583,8,-33,926,223,50,41,11,-30731,-31854,-18317,904,705
4958,17596,17606,9,-32,926,351,59,48,12,-30868,-32255,-18335,902,706
4958,17635,17645,11,-31,923,63,54,40,9,-30773,-32022,-18353,903,707
4958,17658,17668,10,-30,927,447,58,43,11,-30623,-32177,-18515,903,708
4958,17681,17690,13,-31,921,0,56,44,12,-30809,-31962,-18569,903,709
4958,17703,17713,9,-30,925,159,49,42,12,-30880,-31950,-18730,903,710
4958,17726,17736,16,-32,922,0,53,44,10,-30557,-32225,-18503,901,711
4958,17749,17759,15,-31,928,95,51,41,13,-30743,-32111,-18688,900,712
4958,17772,17782,4,-35,934,-47,49,38,11,-30581,-32111,-18461,901,713
4958,17795,17805,13,-32,924,271,48,43,10,-30617,-32165,-18658,902,714
4958,17818,17827,15,-32,927,-15,51,45,12,-30689,-32004,-18395,900,715
4958,17840,17850,11,-30,921,-447,58,43,10,-30767,-31974,-18766,903,716
4958,17863,17873,4,-40,928,0,50,37,13,-30641,-31992,-18790,904,717
4958,17886,17896,13,-30,924,-415,56,38,12,-30713,-32046,-18473,904,718
4958,17909,17919,10,-38,917,255,51,46,11,-30743,-32028,-18682,901,719
4958,17932,17941,12,-43,926,31,50,45,13,-30605,-32165,-18449,903,720
4958,17960,17970,4,-36,930,47,50,41,9,-30791,-32177,-18569,900,721
4958,17983,17992,5,-28,921,143,51,42,9,-30832,-32225,-18545,902,722
4958,18005,18015,6,-37,930,191,51,41,13,-30689,-32063,-18682,903,723
4958,18028,18038,13,-26,924,79,50,43,11,-30922,-32147,-18628,904,724
4958,18051,18061,2,-40,934,-143,54,43,14,-30832,-31962,-18886,904,725
4958,18074,18084,8,-33,931,-15,52,43,8,-30587,-31980,-18557,902,726
4958,18137,18147,8,-19,912,399,49,42,13,-30749,-32183,-18742,905,727
4958,18193,18203,16,-30,927,175,57,43,10,-30761,-32040,-18862,903,728
4958,18255,18265,3,-30,916,-447,54,37,14,-30868,-31986,-18670,903,729
4958,18278,18288,6,-41,918,207,51,45,11,-30767,-31878,-18964,902,730
4958,18301,18311,10,-37,926,-207,51,40,13,-30910,-32087,-18605,902,731
4958,18324,18334,8,-33,937,63,51,40,11,-30761,-32105,-18964,905,732
4958,18347,18357,17,-36,930,111,51,35,12,-30832,-31920,-18616,903,733
4958,18369,18379,8,-34,926,-303,53,38,9,-30701,-31848,-18820,905,734
4958,18398,18407,3,-30,926,-31,56,40,13,-30629,-32022,-18874,903,735
4958,18420,18430,9,-30,932,0,52,38,10,-30844,-32183,-18748,902,736
4958,18443,18453,0,-29,926,79,51,49,16,-30940,-31962,-18838,899,737
4958,18466,18476,13,-32,920,0,50,41,14,-30725,-32111,-18736,904,738
4958,18489,18499,15,-36,930,-575,48,45,13,-30599,-31902,-18862,905,739
4958,18512,18521,0,-21,926,111,52,42,11,-30653,-32057,-18802,903,740
4958,18534,18544,12,-29,926,15,57,40,13,-30898,-32255,-18706,901,741
4958,18557,18567,15,-36,928,0,56,40,12,-30767,-32147,-18760,904,742
4958,18580,18590,8,-32,928,79,52,41,18,-30731,-30711,-18820,903,743
4958,18603,18613,4,-30,925,0,53,48,13,-30797,-32249,-18910,903,744
4958,18626,18635,4,-34,920,95,50,40,9,-30617,-32309,-18676,904,745
4958,18648,18658,10,-38,928,319,46,42,13,-30683,-32231,-18838,904,746
4958,18671,18681,7,-28,927,-479,49,41,5,-30880,-32111,-19030,901,747
4958,18694,18704,6,-26,920,255,57,37,13,-30809,-32279,-18611,904,748
4958,18722,18732,9,-39,922,159,59,40,11,-30551,-32357,-18664,905,749
4958,18745,18755,13,-34,925,191,54,40,10,-30803,-32171,-18946,905,750
4958,18768,18777,8,-37,922,191,54,40,14,-30725,-32028,-18688,903,751
4958,18790,18800,2,-32,929,415,54,41,12,-30743,-32177,-18730,903,752
4958,18813,18823,4,-27,925,63,49,44,9,-30629,-32147,-18802,905,753
4958,18836,18846,17,-29,927,175,49,42,13,-30743,-32081,-18652,902,754
4958,18859,18869,5,-41,934,-223,52,41,9,-30539,-31968,-18658,902,755
4958,18882,18892,15,-32,933,0,51,42,11,-30569,-31896,-18485,903,756
4958,18905,18914,5,-28,913,47,54,38,8,-30647,-31908,-18634,904,757
4958,18927,18937,6,-33,916,223,56,40,9,-30820,-32141,-18820,902,758
4958,18950,18960,2,-35,927,271,50,41,11,-30737,-31980,-18772,901,759
4958,18973,18983,7,-34,921,287,51,46,4,-30791,-31860,-18628,902,760
4958,18996,19006,7,-43,922,-351,46,36,4,-30749,-31950,-18742,903,761
4958,19019,19028,14,-30,924,15,48,41,13,-30773,-32010,-18910,901,762
4958,19047,19057,17,-28,922,-223,54,43,10,-30773,-31956,-18694,901,763
4958,19069,19079,11,-30,925,319,56,38,11,-30826,-31842,-18605,901,764
4958,19092,19102,11,-28,926,-255,51,41,2,-30964,-31890,-18934,903,765
4958,19115,19125,12,-26,928,143,56,35,9,-30844,-32004,-19095,903,766
4958,19138,19148,6,-36,922,-415,51,41,11,-30635,-32028,-19089,901,767
4958,19161,19170,10,-32,929,95,46,45,9,-30689,-32004,-18940,902,768
4958,19183,19193,5,-39,926,255,52,40,14,-30761,-31920,-18754,900,769
4958,19206,19216,12,-34,915,-175,54,40,11,-30743,-31920,-18814,904,770
4958,19229,19239,9,-34,923,-447,52,40,9,-30755,-32057,-18802,903,771
4958,19252,19262,15,-23,928,191,50,40,11,-30581,-32046,-18820,900,772
4958,19274,19284,7,-30,930,191,53,42,12,-30641,-32099,-18880,901,773
4958,19297,19307,9,-39,933,-319,53,40,8,-30671,-31920,-18904,903,774
4958,19320,19330,19,-32,927,143,50,41,9,-30779,-31842,-18904,901,775
4958,19348,19358,15,-30,928,-399,49,42,9,-30563,-31818,-18772,901,776
4958,19371,19381,13,-42,920,255,58,42,13,-30617,-31830,-18467,901,777
4958,19394,19403,10,-34,916,143,84,41,11,-30587,-32093,-18874,902,778
4958,19416,19426,-2,-37,933,31,80,36,6,-30677,-31938,-18646,904,779
4958,19439,19449,13,-37,928,-143,74,37,5,-30892,-31842,-18832,902,780
4958,19462,19472,8,-37,932,-63,67,42,11,-30862,-31848,-18874,903,781
4958,19485,19495,3,-45,928,-223,45,41,8,-30880,-32069,-18760,903,782
4958,19508,19518,1,-49,939,-239,35,45,12,-30886,-31962,-18467,904,783
4958,19530,19540,-10,-56,913,-431,16,50,6,-30731,-31812,-18581,903,784
4958,19553,19563,1,-40,937,-223,-3,49,8,-30689,-32231,-18527,902,785
4958,19576,19586,10,-12,904,-95,33,42,11,-30707,-32195,-18437,903,786
4958,19599,19609,13,-26,929,-79,113,33,11,-30755,-32063,-18569,905,787
4958,19622,19632,10,-28,933,-47,96,36,14,-30874,-32046,-18670,904,788
4958,19645,19654,4,-45,929,-79,66,46,10,-30779,-32153,-18569,903,789
4958,19685,19695,8,-52,925,159,20,41,4,-30611,-32135,-18670,904,790
4958,19708,19718,8,-32,930,-143,2,54,5,-30503,-32081,-18539,902,791
4958,19731,19741,19,-19,909,-319,41,44,10,-30521,-32099,-18473,902,792
4958,19754,19764,7,-27,930,111,91,34,17,-30820,-32022,-18389,901,793
4958,19776,19786,8,-29,924,255,93,42,10,-30791,-32087,-19904,904,794
4958,19799,19809,6,-38,937,191,62,44,14,-30761,-31950,-18796,900,795
4958,19822,19832,4,-39,913,-191,34,40,8,-30749,-31956,-18664,903,796
4958,19845,19855,6,-32,924,399,6,42,6,-30868,-31980,-18958,905,797
4958,19868,19878,8,-26,911,-303,24,42,10,-30964,-32183,-18497,903,798
4958,19891,19900,8,-20,919,-47,82,36,16,-30779,-32243,-18778,903,799
4958,19913,19923,4,-38,931,319,89,36,12,-30940,-32315,-18575,903,800
4958,19936,19946,18,-41,933,-191,69,38,11,-30797,-31986,-18605,902,801
4958,19959,19969,4,-40,924,-143,46,44,10,-30886,-31878,-18527,903,802
4958,19982,19992,10,-45,935,0,27,46,10,-30611,-31926,-18551,903,803
4958,20010,20020,10,-19,913,111,12,45,6,-30820,-31824,-18485,902,804
4958,20033,20042,13,-17,933,319,70,35,12,-30874,-31758,-18281,903,805
4958,20055,20065,5,-29,926,0,94,40,9,-30922,-31854,-18365,904,806
4958,20078,20088,4,-36,926,-15,76,38,17,-30838,-31854,-18389,904,807
4958,20101,20111,8,-39,933,367,50,44,10,-30797,-32046,-18455,902,808
4958,20124,20134,10,-36,927,-47,22,45,8,-30958,-32004,-18670,902,809
4958,20147,20156,15,-19,922,271,19,48,13,-30755,-31866,-18682,902,810
4958,20169,20179,4,-28,923,79,56,38,9,-30994,-31860,-18916,902,811
4958,20192,20202,8,-37,932,143,80,37,10,-30994,-31998,-18784,902,812
4958,20215,20225,12,-39,922,-111,73,38,16,-30988,-31926,-18886,902,813
4958,20238,20248,10,-30,930,47,52,42,14,-30850,-31968,-18646,903,814
4958,20261,20270,13,-37,923,-319,30,40,11,-30809,-32022,-18766,902,815
4958,20283,20293,9,-29,920,47,28,48,11,-30743,-31860,-18748,900,816
4958,20306,20316,15,-21,928,-223,51,44,10,-30623,-31974,-18736,903,817
4958,20335,20344,10,-33,929,319,83,32,11,-30826,-32040,-19107,902,818
4958,20357,20367,11,-34,930,287,62,40,10,-30743,-32057,-18790,903,819
4958,20380,20390,13,-43,926,127,46,44,6,-30725,-31872,-18742,903,820
4958,20403,20413,12,-39,923,-287,28,45,12,-30605,-31944,-18922,901,821
4958,20426,20435,13,-24,920,-175,38,42,5,-30665,-31842,-18892,901,822
4958,20448,20458,10,-28,928,-191,73,41,12,-30665,-32040,-18694,900,823
4958,20471,20481,10,-35,924,-671,78,38,6,-30671,-31842,-18437,902,824
4958,20494,20504,7,-37,928,-63,52,37,10,-30785,-31962,-18443,905,825
4958,20517,20527,7,-43,930,287,40,44,10,-30683,-32099,-18515,903,826
4958,20540,20549,9,-28,928,-367,30,41,11,-30922,-31854,-18605,903,827
4958,20562,20572,6,-26,926,143,51,40,8,-30755,-31998,-18245,901,828
4958,20585,20595,5,-35,926,-239,74,41,11,-30701,-31914,-18658,903,829
4958,20608,20618,9,-42,922,31,69,38,11,-30844,-31890,-18449,902,830
4958,20631,20641,2,-34,927,-95,46,43,13,-30982,-32123,-18539,902,831
4958,20659,20669,8,-35,920,15,32,45,11,-30719,-32225,-18886,904,832
4958,20681,20691,14,-28,923,207,42,46,9,-30743,-32010,-18868,903,833
4958,20704,20714,8,-26,928,-127,73,33,14,-30826,-32069,-18622,903,834
4958,20727,20737,6,-42,922,143,72,43,14,-30850,-32171,-18616,903,835
4958,20750,20760,9,-38,929,-31,45,41,12,-30755,-32022,-18766,901,836
4958,20773,20782,7,-32,928,-191,42,44,14,-30910,-32087,-19012,901,837
4958,20795,20805,8,-28,924,415,42,42,10,-30731,-32087,-18886,903,838
4958,20818,20828,13,-31,916,-223,65,42,10,-30695,-31968,-18856,902,839
4958,20841,20851,10,-33,920,-223,65,36,12,-30599,-31944,-18587,901,840
4958,20864,20874,9,-39,913,-367,51,36,12,-30563,-32081,-18820,905,841
4958,20886,20896,9,-30,927,0,35,45,9,-30485,-31932,-18197,902,842
4958,20909,20919,14,-28,926,63,40,43,13,-30485,-31896,-18766,900,843
4958,20932,20942,7,-31,914,-431,59,41,9,-30599,-32028,-18503,904,844
4958,20955,20965,6,-34,927,31,65,40,9,-30653,-32255,-18658,902,845
4958,20983,20993,8,-36,924,-223,46,40,5,-30785,-31884,-19042,902,846
4958,21006,21015,6,-32,925,-159,38,38,9,-30725,-32004,-18521,902,847
4958,21036,21046,6,-25,926,47,44,40,10,-30527,-32093,-18622,902,848
4958,21059,21068,4,-34,921,-191,61,42,8,-30575,-31962,-18736,901,849
4958,21081,21091,12,-42,924,271,62,37,9,-30575,-31974,-18736,902,850
4958,21104,21114,5,-36,928,191,42,42,10,-30725,-32046,-18652,901,851
4958,21127,21137,11,-44,924,47,37,43,11,-30814,-31956,-18670,905,852
4958,21150,21160,8,-29,924,-47,52,41,11,-30767,-31872,-18539,901,853
4958,21172,21182,8,-34,929,47,67,41,9,-30767,-31992,-18551,903,854
4958,21195,21205,45,-89,893,-95,61,46,3,-30605,-31848,-18593,905,855
4958,21218,21228,8,-28,926,95,42,44,12,-30731,-31662,-18569,901,856
4958,21241,21251,3,-15,930,415,46,34,4,-30880,-31770,-18784,901,857
4958,21263,21273,17,-13,920,31,61,38,14,-30767,-31968,-18898,905,858
4958,21292,21301,4,-31,921,159,59,38,12,-30677,-31968,-18772,901,859
4958,21314,21324,8,-44,926,-415,48,42,10,-30671,-31944,-18545,904,860
4958,21337,21347,6,-32,927,-239,43,45,8,-30791,-31938,-18658,900,861
4958,21360,21370,8,-25,924,-319,51,45,10,-30850,-32004,-18599,900,862
4958,21383,21392,7,-36,920,-79,57,37,8,-30719,-31998,-18814,904,863
4958,21405,21415,9,-34,936,-191,54,41,10,-30779,-32135,-18706,903,864
4958,21428,21438,3,-33,922,-47,48,44,8,-30689,-32028,-18664,902,865
4958,21451,21461,9,-28,924,207,42,43,5,-30713,-32040,-18491,905,866
4958,21474,21483,9,-33,917,0,50,42,12,-30791,-32063,-18581,903,867
4958,21496,21506,4,-36,917,-143,60,41,10,-30659,-32063,-18503,901,868
4958,21519,21529,10,-38,924,191,59,43,11,-30719,-31980,-18611,902,869
4958,21542,21552,6,-34,924,15,49,45,14,-30779,-32040,-18389,903,870
4958,21565,21574,6,-29,926,0,41,45,12,-30803,-31962,-18287,904,871
4958,21587,21597,6,-28,930,223,50,38,8,-30826,-32046,-18365,901,872
4958,21626,21636,4,-36,926,-159,53,40,10,-30820,-31890,-18503,902,873
4958,21648,21658,10,-36,936,-127,50,41,12,-30904,-31884,-18515,902,874
4958,21671,21681,8,-32,937,63,46,42,12,-30814,-31860,-18317,901,875
4958,21694,21704,14,-31,924,303,49,44,4,-30767,-31914,-18670,903,876
4958,21717,21726,13,-30,933,-207,64,46,9,-30886,-31890,-18605,902,877
4958,21739,21749,6,-36,920,111,57,40,8,-30934,-32034,-18479,904,878
4958,21762,21772,5,-30,922,191,45,44,11,-30761,-31986,-18599,902,879
4958,21785,21795,1,-33,920,255,41,42,10,-30761,-31770,-18497,901,880
4958,21808,21818,6,-25,929,0,48,37,12,-30916,-31890,-18581,903,881
4958,21830,21840,10,-29,927,-143,59,44,11,-30707,-32004,-18527,901,882
4958,21853,21863,4,-30,917,-543,69,38,10,-30922,-32022,-18652,902,883
4958,21876,21886,6,-43,928,0,52,42,9,-30982,-32010,-18676,904,884
4958,21899,21908,4,-42,932,271,45,40,4,-30988,-32040,-18790,901,885
4958,21921,21931,4,-27,919,-111,38,41,12,-30820,-31980,-18820,901,886
4958,21957,21967,12,-30,931,15,66,42,10,-30898,-31920,-18784,903,887
4958,21980,21990,10,-34,924,-31,57,36,12,-30713,-32040,-18587,903,888
4958,22003,22012,8,-39,929,-239,52,46,10,-31018,-31998,-18401,904,889
4958,22025,22035,8,-38,920,-111,42,37,10,-30820,-32129,-18503,905,890
4958,22048,22058,4,-26,926,-287,53,49,11,-30964,-32046,-18730,902,891
4958,22071,22081,8,-28,913,319,58,46,9,-31000,-31854,-18593,900,892
4958,22094,22104,5,-38,931,-47,60,42,5,-30653,-31950,-18862,904,893
4958,22116,22126,5,-34,925,-79,50,45,10,-30755,-31878,-18832,903,894
4958,22139,22149,5,-36,932,127,54,42,12,-30761,-31974,-18946,904,895
4958,22162,22172,11,-24,919,0,53,43,13,-30731,-32141,-18664,904,896
4958,22185,22195,11,-28,928,287,56,36,13,-30593,-32016,-18569,902,897
4958,22208,22217,5,-28,924,-47,54,36,6,-30773,-32177,-18682,902,898
4958,22230,22240,6,-32,918,-255,48,42,12,-30779,-31908,-18706,902,899
4958,22253,22263,4,-34,922,-143,51,43,8,-30820,-32141,-18952,905,900
4958,22281,22291,10,-26,922,95,61,38,11,-30874,-32105,-18736,904,901
4958,22304,22314,18,-33,928,127,53,42,11,-30797,-31980,-18838,901,902
4958,22327,22337,6,-31,922,-127,51,38,4,-30701,-31884,-18814,904,903
4958,22350,22360,10,-31,930,207,48,43,11,-30785,-32057,-18820,901,904
4958,22373,22383,7,-34,931,-159,54,41,8,-30737,-31950,-18814,901,905
4958,22396,22406,15,-26,925,255,61,42,11,-30509,-31980,-18826,902,906
4958,22419,22429,8,-38,922,-63,56,43,10,-30599,-31872,-18670,903,907
4958,22442,22452,9,-32,926,-175,46,42,10,-30587,-32099,-18646,902,908
4958,22465,22475,10,-26,934,511,48,42,8,-30587,-32105,-18676,903,909
4958,22488,22497,11,-36,923,111,58,45,13,-30731,-32195,-18652,904,910
4958,22511,22520,6,-28,921,-191,54,41,11,-30707,-31920,-18730,901,911
4958,22533,22543,5,-31,924,-159,50,34,13,-30713,-31938,-18694,903,912
4958,22556,22566,6,-36,931,351,49,46,14,-30713,-32057,-18581,901,913
4958,22579,22589,10,-38,926,-191,51,45,11,-30677,-32153,-18587,905,914
4958,22608,22618,13,-27,933,207,50,41,8,-30880,-31848,-18503,904,915
4958,22630,22640,10,-36,933,-399,52,42,11,-30581,-31890,-18515,905,916
4958,22653,22663,3,-32,927,287,46,37,10,-30868,-31956,-18724,903,917
4958,22676,22686,10,-30,935,-383,48,42,12,-30809,-32063,-18892,904,918
4958,22699,22709,8,-30,924,-479,58,43,10,-30581,-31992,-18628,903,919
4958,22722,22732,15,-39,921,-335,53,45,10,-30958,-32153,-18982,902,920
4958,22745,22755,3,-39,926,111,52,42,12,-30791,-32063,-18407,903,921
4958,22768,22778,10,-34,922,0,51,43,14,-30785,-32081,-18311,902,922
4958,22791,22801,2,-21,921,-319,48,43,12,-30976,-32069,-18622,903,923
4958,22814,22824,13,-34,928,399,54,37,12,-30791,-31980,-18850,900,924
4958,22837,22847,14,-34,924,255,53,40,8,-30665,-32087,-18724,902,925
4958,22860,22870,7,-39,930,63,54,37,9,-30605,-32010,-18389,905,926
4958,22883,22893,13,-25,923,351,51,45,9,-30946,-32052,-18718,903,927
4958,22906,22916,8,-35,915,-79,54,38,9,-30904,-32081,-18730,902,928
4958,22934,22944,5,-36,924,255,52,37,10,-30946,-31974,-18760,902,929
4958,22957,22967,10,-27,930,303,53,45,12,-30976,-32069,-18569,901,930
4958,22980,22990,8,-44,926,-223,50,45,16,-31138,-32034,-18694,902,931
4958,23003,23012,7,-33,930,95,52,38,12,-31072,-32016,-18736,902,932
4958,23026,23035,13,-43,930,-271,56,44,8,-31066,-32016,-18515,904,933
4958,23048,23058,6,-28,926,-287,56,37,11,-30988,-31962,-18275,902,934
4958,23071,23081,8,-31,926,191,49,42,12,-30922,-31968,-18706,903,935
4958,23094,23104,7,-36,930,159,56,41,13,-30952,-32165,-18694,901,936
4958,23117,23127,10,-36,933,15,49,48,14,-30898,-32213,-18892,903,937
4958,23140,23150,4,-40,920,-127,53,42,16,-30964,-32177,-18850,904,938
4958,23163,23173,5,-29,933,-207,51,43,11,-31036,-32279,-18898,901,939
4958,23186,23196,16,-26,926,0,49,38,12,-30910,-31860,-18611,904,940
4958,23209,23219,10,-34,933,15,54,45,12,-30779,-31998,-18557,904,941
4958,23237,23247,6,-32,925,-367,57,42,11,-30922,-32219,-18634,899,942
4958,23260,23270,10,-39,926,47,56,45,12,-30862,-32004,-18545,903,943
4958,23293,23303,13,-34,922,223,48,37,13,-30689,-32195,-18634,903,944
4958,23316,23326,7,-23,926,383,49,45,12,-30862,-32034,-18814,900,945
4958,23339,23349,11,-29,924,191,58,38,9,-30880,-32057,-18814,902,946
4958,23362,23372,6,-34,924,31,53,45,14,-30683,-32087,-18664,901,947
4958,23385,23395,4,-28,925,79,57,40,10,-30707,-32075,-18898,902,948
4958,23408,23418,8,-36,933,0,49,45,9,-30617,-32052,-18754,902,949
4958,23431,23441,15,-30,928,-415,50,43,12,-30749,-32016,-18766,901,950
4958,23454,23463,10,-31,939,15,52,37,10,-30641,-31854,-18760,905,951
4958,23477,23486,17,-26,930,-335,52,37,14,-30677,-31980,-18964,903,952
4958,23499,23509,12,-36,933,255,52,46,13,-30838,-31992,-18790,901,953
4958,23522,23532,4,-31,922,-127,54,41,8,-30515,-32057,-18784,905,954
4958,23545,23555,4,-33,924,-383,49,42,4,-30713,-32297,-18730,902,955
4958,23574,23583,6,-30,928,95,50,37,12,-30773,-31836,-18569,902,956
4958,23596,23606,10,-32,926,191,52,40,10,-30755,-32093,-18814,902,957
4958,23619,23629,7,-38,926,127,58,38,12,-30892,-32135,-18928,903,958
4958,23642,23652,4,-40,933,111,48,40,5,-30797,-31986,-18700,903,959
4958,23665,23675,17,-45,924,127,57,41,8,-30928,-31914,-19089,902,960
4958,23688,23698,15,-34,924,-63,50,30,6,-30737,-31968,-18922,904,961
4958,23711,23721,-10,-29,928,383,41,42,8,-30707,-32177,-18802,903,962
4958,23734,23743,-2,-24,922,-399,35,38,4,-30773,-31992,-18802,904,963
4958,23757,23766,4,-20,926,95,51,45,11,-30952,-32046,-18826,902,964
4958,23779,23789,10,-32,928,47,66,46,16,-30695,-31956,-18910,904,965
4958,23802,23812,13,-41,930,415,65,41,9,-30671,-31938,-18682,904,966
4958,23825,23835,8,-34,933,383,51,44,6,-30755,-32075,-18730,902,967
4958,23848,23858,6,-28,934,-287,34,41,10,-30749,-32297,-18724,905,968
4958,23878,23888,5,-22,922,79,56,42,6,-30683,-32183,-18718,902,969
4958,23907,23917,10,-26,919,111,69,38,14,-30671,-32093,-18563,906,970
4958,23930,23939,10,-47,930,63,64,43,17,-30838,-32117,-18712,902,971
4958,23952,23962,11,-44,922,95,46,44,8,-30755,-32004,-18646,902,972
4958,23975,23985,8,-36,933,95,38,43,12,-30838,-31998,-18808,903,973
4958,23998,24008,0,-28,925,239,44,38,16,-30737,-32075,-18581,905,974
4958,24021,24031,5,-21,920,-31,64,38,14,-30958,-32201,-18760,903,975
4958,24044,24054,4,-39,928,-79,69,46,12,-30431,-32069,-18425,903,976
4958,24067,24077,11,-32,928,-351,53,40,9,-30785,-32075,-18862,901,977
4958,24090,24100,19,-33,924,351,40,41,14,-30569,-31992,-18652,903,978
4958,24113,24122,13,-28,930,-255,48,43,10,-30814,-32081,-18599,900,979
4958,24135,24145,4,-30,933,-95,59,40,6,-30767,-32034,-18868,903,980
4958,24158,24168,2,-29,930,287,62,36,10,-30922,-31776,-18946,904,981
4958,24181,24191,1,-34,930,-127,52,42,8,-30671,-32004,-18724,903,982
4958,24204,24214,7,-36,926,63,41,43,10,-30814,-32004,-18784,902,983
4958,24232,24242,16,-28,926,-111,49,41,11,-30695,-31998,-18976,902,984
4958,24255,24265,10,-20,926,95,61,32,9,-30593,-31908,-19077,902,985
4958,24278,24288,13,-26,923,0,52,42,8,-30773,-32016,-18838,900,986
4958,24301,24311,5,-32,924,-63,50,42,10,-30856,-31974,-18658,903,987
4958,24324,24334,6,-30,925,127,48,45,8,-30773,-31902,-18844,905,988
4958,24347,24356,5,-30,942,-303,54,34,11,-30725,-32010,-18796,901,989
4958,24369,24379,13,-40,926,319,58,46,12,-30880,-32093,-18928,902,990
4958,24392,24402,13,-39,928,-63,58,43,6,-30856,-32117,-18700,903,991
4958,24415,24425,15,-36,924,127,44,44,8,-30749,-31914,-18910,904,992
4958,24438,24448,7,-36,926,15,49,41,10,-30689,-32022,-18868,901,993
4958,24461,24471,9,-36,924,303,49,41,8,-30785,-31926,-18676,902,994
4958,24484,24494,5,-35,933,79,61,42,11,-30874,-31914,-18772,900,995
4958,24507,24517,12,-29,920,-415,54,38,6,-30683,-31986,-18820,902,996
4958,24530,24539,6,-24,928,271,46,42,9,-30856,-31848,-18766,904,997
4958,24558,24568,8,-33,922,111,48,44,6,-30761,-31896,-18868,902,998
4958,24580,24590,8,-30,928,-127,52,44,13,-30838,-31932,-18682,902,999
4958,24603,24613,4,-27,923,-191,58,38,13,-30970,-31992,-18760,902,1000
4958,24626,24636,6,-39,930,63,52,43,6,-30809,-31974,-18988,903,1001
4958,24649,24659,8,-32,920,383,48,41,12,-30892,-32195,-18748,903,1002
4958,24672,24682,4,-26,937,15,50,41,13,-30731,-32063,-18754,902,1003
4958,24695,24705,10,-29,932,271,56,43,9,-30820,-31926,-18838,902,1004
4958,24718,24728,4,-29,930,-303,51,40,12,-30898,-32147,-18694,902,1005
4958,24741,24751,12,-35,926,319,50,44,8,-30856,-32237,-18646,904,1006
4958,24764,24774,2,-26,926,159,52,42,13,-30809,-32028,-18371,901,1007
4958,24787,24797,7,-34,926,-175,54,42,13,-30767,-32004,-18658,903,1008
4958,24810,24820,9,-35,924,31,51,40,10,-30868,-32117,-18539,902,1009
4958,24833,24843,9,-32,933,-271,49,38,12,-30928,-31992,-18389,903,1010
4958,24856,24865,7,-30,922,-303,48,46,9,-30820,-32123,-18365,905,1011
4958,24884,24894,7,-32,924,255,46,38,9,-30826,-32004,-18664,903,1012
4958,24907,24916,3,-33,920,255,56,38,6,-30731,-32273,-18503,902,1013
4958,24930,24939,5,-32,921,335,48,45,13,-30838,-32004,-18796,903,1014
4958,24952,24962,22,-36,920,79,52,41,9,-30850,-32040,-18575,903,1015
4958,24975,24985,4,-37,930,159,46,44,11,-30916,-32273,-18718,900,1016
4958,24998,25008,13,-34,927,207,54,35,13,-30814,-32219,-18712,903,1017
4958,25021,25031,15,-41,931,31,54,36,10,-30803,-32081,-18826,904,1018
4958,25044,25054,4,-34,933,-95,56,46,14,-30653,-32093,-18802,905,1019
4958,25067,25077,4,-28,922,319,49,37,8,-30850,-32087,-18766,901,1020
4958,25090,25100,2,-36,920,-111,46,42,12,-30868,-32111,-18640,904,1021
4958,25113,25123,9,-36,924,-223,58,37,14,-30886,-32016,-18616,903,1022
4958,25148,25158,12,-45,918,-159,46,43,13,-30743,-32052,-18521,904,1023
4958,25171,25181,11,-35,921,-527,44,41,10,-30910,-31992,-18862,904,1024
4958,25194,25204,4,-40,924,223,45,42,12,-30892,-32087,-18533,902,1025
4958,25216,25226,6,-33,920,-143,51,44,11,-31024,-32028,-18593,900,1026
4958,25238,25248,6,-36,930,-191,53,42,11,-31090,-32135,-18850,902,1027
4958,25261,25271,11,-32,926,0,53,43,10,-30928,-32207,-18910,901,1028
4958,25284,25294,3,-35,925,63,50,42,12,-30767,-31950,-18616,901,1029
4958,25307,25317,10,-32,922,-175,53,35,10,-30910,-31986,-18892,903,1030
4958,25330,25340,13,-30,927,-159,52,38,9,-30868,-31992,-18844,903,1031
4958,25353,25363,15,-40,928,31,46,42,10,-30820,-31902,-19036,901,1032
4958,25376,25386,6,-26,919,47,45,45,10,-30952,-31932,-19083,902,1033
4958,25399,25408,4,-40,924,-143,48,40,10,-30964,-31932,-18892,905,1034
4958,25422,25431,10,-39,919,191,51,38,10,-30958,-32028,-18790,904,1035
4958,25444,25454,8,-36,929,0,52,43,6,-30940,-31872,-18658,903,1036
4958,25467,25477,10,-31,926,143,53,42,11,-30803,-32057,-18772,902,1037
4958,25490,25500,13,-36,925,383,51,40,10,-30820,-32057,-18874,903,1038
4958,25518,25528,5,-41,931,111,54,42,9,-30809,-31968,-19113,901,1039
4958,25541,25551,13,-32,915,527,51,40,8,-30952,-32046,-18628,903,1040
4958,25564,25574,12,-40,930,31,53,41,12,-30946,-31974,-18730,903,1041
4958,25587,25597,12,-31,922,-159,53,38,11,-30809,-32004,-18503,903,1042
4958,25610,25620,6,-24,920,191,53,42,8,-30791,-31998,-18611,904,1043
4958,25633,25643,6,-30,915,175,56,44,12,-30880,-32111,-18593,902,1044
4958,25656,25665,7,-26,924,0,54,41,6,-30809,-31788,-18335,905,1045
4958,25678,25688,6,-33,929,303,52,44,10,-30761,-31938,-18569,904,1046
4958,25701,25711,21,-35,918,-111,52,40,9,-30886,-32028,-18575,901,1047
4958,25724,25734,14,-24,920,255,49,42,14,-31030,-32016,-18491,901,1048
4958,25747,25757,8,-22,923,223,46,38,13,-30707,-32034,-18539,901,1049
4958,25770,25780,-23,-51,931,15,54,33,8,-30803,-31920,-18796,903,1050
4958,25793,25803,22,-32,927,239,62,40,13,-31168,-32147,-18371,901,1051
4958,25816,25826,22,-39,928,143,53,46,10,-31096,-32171,-18545,900,1052
4958,25844,25854,5,-25,929,-127,52,45,9,-30982,-32213,-18515,899,1053
4958,25867,25877,10,-38,933,47,53,44,6,-31078,-32219,-18748,902,1054
4958,25890,25899,11,-35,928,-159,51,42,9,-31108,-32052,-18461,904,1055
4958,25912,25922,6,-38,922,223,52,43,12,-30862,-31944,-18730,903,1056
4958,25935,25945,8,-36,919,47,51,40,10,-31042,-32129,-18664,904,1057
4958,25958,25968,5,-32,924,15,52,40,6,-30916,-32081,-18611,901,1058
4958,25981,25991,-1,-24,921,191,56,42,13,-31054,-31944,-18551,903,1059
4958,26004,26014,4,-39,930,-191,57,41,11,-31150,-32052,-18784,903,1060
4958,26027,26037,4,-26,930,143,48,43,10,-30809,-31986,-18575,902,1061
4958,26050,26059,13,-34,928,335,45,44,13,-31150,-31968,-18826,901,1062
4958,26072,26082,20,-33,920,79,54,42,11,-31018,-31962,-18533,901,1063
4958,26095,26105,6,-26,913,63,53,41,8,-31114,-31806,-18628,904,1064
4958,26118,26128,5,-34,930,-47,52,44,9,-30934,-31974,-18628,903,1065
4958,26141,26151,13,-31,930,31,53,43,16,-30988,-31872,-18557,902,1066
4958,26169,26179,16,-30,929,-367,48,37,10,-31138,-31890,-18311,903,1067
4958,26192,26202,2,-35,924,111,52,35,8,-31156,-31926,-18257,902,1068
4958,26215,26225,8,-34,929,95,49,37,8,-30880,-32117,-18413,902,1069
4958,26238,26248,6,-32,922,0,49,41,9,-31006,-32111,-18736,903,1070
4958,26261,26270,14,-35,926,-63,53,40,11,-31030,-31920,-18269,900,1071
4958,26283,26293,8,-32,929,-223,51,46,16,-30850,-31938,-18581,900,1072
4958,26306,26316,13,-39,920,319,56,37,12,-31066,-32075,-18533,902,1073
4958,26329,26339,8,-36,928,-511,54,40,11,-30934,-31986,-18658,902,1074
4958,26352,26362,10,-26,926,111,48,42,8,-31018,-32022,-18605,902,1075
4958,26375,26385,15,-25,928,-79,48,43,12,-31024,-32153,-18605,906,1076
4958,26398,26408,3,-34,920,-223,52,38,9,-30910,-32165,-18557,900,1077
4958,26421,26430,6,-26,928,0,59,34,9,-31042,-32111,-18688,903,1078
4958,26444,26453,10,-31,924,-255,50,41,13,-31024,-32255,-18335,904,1079
4958,26466,26476,5,-30,920,-95,51,41,14,-31156,-32213,-18700,902,1080
4958,26495,26504,14,-36,924,31,58,43,11,-30850,-32171,-18509,900,1081
4958,26517,26527,7,-36,933,527,61,38,14,-30803,-32189,-18670,904,1082
4958,26540,26550,10,-39,925,367,61,40,11,-31006,-31980,-18718,905,1083
4958,26563,26573,8,-30,926,0,46,43,5,-31054,-31986,-18796,902,1084
4958,26586,26596,9,-39,922,95,45,41,14,-31180,-32231,-18736,904,1085
4958,26609,26618,6,-32,919,-63,56,36,13,-31174,-32087,-18730,904,1086
4958,26631,26641,13,-40,926,-239,62,38,9,-31252,-32189,-18814,902,1087
4958,26654,26664,7,-35,922,479,54,42,16,-31144,-32129,-18664,903,1088
4958,26677,26687,10,-29,930,-479,40,49,9,-31126,-32135,-18784,900,1089
4958,26700,26710,13,-32,922,143,50,44,10,-31120,-31944,-18425,900,1090
4958,26730,26740,11,-37,933,431,52,36,11,-31156,-32022,-18479,902,1091
4958,26753,26763,7,-36,926,-127,61,43,6,-31120,-32141,-18682,903,1092
4958,26776,26786,17,-34,924,79,50,44,13,-31210,-32243,-18718,903,1093
4958,26799,26809,3,-30,922,-63,44,42,12,-31096,-32081,-18622,903,1094
4958,26827,26837,13,-29,936,-127,48,33,6,-31138,-32255,-18688,903,1095
4958,26850,26859,9,-30,926,0,51,44,10,-31132,-32219,-18646,901,1096
4958,26872,26882,11,-31,920,159,51,42,14,-31204,-32057,-18605,905,1097
4958,26895,26905,11,-39,920,-143,49,43,13,-31126,-32034,-18419,904,1098
4958,26918,26928,2,-30,923,-335,49,41,12,-31126,-32099,-18772,899,1099
4958,26941,26951,6,-27,922,31,61,37,13,-31174,-32147,-18928,902,1100
4958,26964,26973,12,-39,925,175,62,43,13,-31222,-32147,-18718,902,1101
4958,26986,26996,10,-34,925,-175,53,40,8,-31126,-31956,-19059,904,1102
4958,27009,27019,10,-42,931,-431,48,36,10,-31228,-32201,-18952,903,1103
4958,27032,27042,10,-28,919,-175,42,44,11,-31192,-32237,-18694,900,1104
4958,27055,27065,9,-34,920,-575,53,42,14,-31054,-32129,-18557,900,1105
4958,27078,27088,4,-34,917,0,60,43,11,-31036,-32105,-18844,905,1106
4958,27101,27110,9,-36,920,271,51,44,13,-31252,-32010,-18557,904,1107
4958,27123,27133,8,-34,925,-111,45,37,3,-31114,-32046,-18748,903,1108
4958,27152,27161,15,-29,926,0,49,40,13,-31030,-32111,-18754,901,1109
4958,27174,27184,8,-37,926,-111,51,41,11,-31084,-32081,-18664,903,1110
4958,27197,27207,8,-36,924,271,56,48,10,-31156,-32339,-18730,901,1111
4958,27220,27230,11,-38,929,-47,50,42,12,-31186,-32081,-18473,903,1112
4958,27243,27253,4,-19,937,159,53,38,13,-30994,-32219,-18658,901,1113
4958,27266,27275,15,-24,935,-319,49,43,9,-31096,-32243,-18521,904,1114
4958,27288,27298,10,-36,924,367,54,37,12,-31180,-32177,-18557,903,1115
4958,27311,27321,10,-34,920,-79,54,40,6,-31108,-32363,-18431,903,1116
4958,27334,27344,10,-36,924,47,53,44,11,-31030,-32183,-18473,902,1117
4958,27357,27367,4,-32,927,-655,46,45,18,-31156,-32111,-18664,903,1118
4958,27380,27390,5,-31,915,415,44,48,16,-30994,-32207,-18790,903,1119
4958,27403,27413,3,-31,927,0,56,40,10,-31138,-32063,-18682,904,1120
4958,27426,27435,17,-39,936,-95,62,41,12,-31174,-32099,-18563,904,1121
4958,27454,27464,9,-44,927,-31,49,42,13,-30994,-31998,-18670,903,1122
4958,27477,27486,13,-39,928,111,41,43,10,-31090,-32040,-18509,902,1123
4958,27499,27509,10,-32,922,-255,44,43,9,-31006,-32063,-18700,901,1124
4958,27522,27532,8,-19,927,-431,58,43,11,-31018,-32105,-18605,903,1125
4958,27697,27707,11,-37,922,-63,45,43,13,-31048,-32135,-18694,871,1127
4958,27872,27882,7,-39,930,79,50,42,5,-31198,-32099,-18497,873,1129
4958,28050,28059,8,-36,927,31,54,40,11,-31252,-32213,-18551,877,1131
4958,28222,28232,5,-25,922,367,49,42,14,-31275,-31974,-18814,874,1133
4958,28397,28407,13,-36,921,31,48,41,13,-31168,-32057,-18874,870,1135
4958,28572,28582,6,-30,923,-79,56,40,12,-31054,-32201,-19024,871,1137
4958,28750,28760,13,-34,928,271,49,41,10,-31437,-31998,-18557,869,1139
4958,28925,28935,4,-36,926,319,51,38,8,-30982,-32279,-18616,879,1141
4958,29100,29110,8,-34,924,-143,43,43,10,-31090,-32213,-18886,869,1143
4958,29277,29287,13,-30,925,207,53,38,11,-31371,-32189,-18784,869,1145
4958,29472,29482,5,-39,933,-207,56,42,11,-31257,-32063,-18467,870,1147
4958,29643,29652,3,-32,922,-223,48,40,8,-31102,-31914,-18634,871,1149
4958,29814,29823,10,-34,925,-303,45,43,11,-31150,-31920,-18485,871,1151
4958,29988,29998,8,-35,923,143,52,35,10,-31144,-32093,-18485,871,1153
4958,30159,30169,13,-31,920,0,49,44,9,-31311,-32034,-18269,870,1155
4958,30330,30340,8,-39,923,-335,60,40,12,-31263,-32075,-18419,872,1157
4958,30504,30514,10,-29,917,-127,50,41,13,-31108,-31914,-18455,871,1159
4958,30675,30685,6,-34,920,95,53,36,17,-31186,-31968,-18515,876,1161
4958,30846,30856,10,-34,926,287,59,41,6,-31192,-31920,-18245,871,1163
4958,31017,31027,8,-26,922,-95,50,42,12,-31174,-31926,-18353,877,1165
4958,31201,31211,7,-33,921,-207,56,45,12,-31252,-31920,-18269,870,1167
4958,31376,31386,10,-38,923,-207,56,40,11,-31305,-31950,-18712,869,1169
4958,31551,31561,10,-26,934,15,54,41,11,-31269,-31872,-18371,868,1171
4958,31726,31736,16,-35,925,239,45,42,14,-31455,-32207,-18646,871,1173
4958,31905,31914,8,-36,924,543,50,40,8,-31198,-32117,-18401,871,1175
4958,32101,32111,2,-36,930,-287,51,49,10,-31228,-31962,-18581,871,1177
4958,32276,32286,10,-31,931,-335,53,48,10,-31030,-32087,-18461,877,1179
4958,32453,32463,16,-34,924,-575,54,40,12,-31252,-31956,-18473,871,1181
4958,32636,32646,3,-28,926,63,50,43,8,-31317,-32063,-18664,877,1183
4958,32811,32821,8,-32,922,159,59,42,12,-31287,-32345,-18473,869,1185
4958,32986,32996,8,-33,925,-31,51,40,13,-31395,-31998,-18652,873,1187
4958,33165,33175,4,-32,935,15,45,49,13,-31455,-32153,-18664,875,1189
4958,33340,33350,4,-34,922,-15,65,36,18,-31168,-32052,-18299,870,1191
4958,33512,33522,19,-34,921,-319,38,44,10,-31174,-32195,-18449,875,1193
4958,33690,33700,11,-40,926,63,52,43,9,-31329,-32135,-18413,871,1195
4958,33865,33875,9,-36,930,-351,61,36,13,-31371,-32333,-18581,870,1197
4958,34040,34050,13,-36,922,-303,44,38,12,-31317,-32249,-18587,870,1199
4958,34215,34225,13,-41,922,-127,-4,48,10,-31551,-32279,-18407,872,1201
4958,34392,34402,9,-21,923,15,5,45,6,-31401,-31974,-18419,871,1203
4958,34567,34577,10,-19,911,15,61,36,10,-31365,-32111,-18557,868,1205
4958,34750,34760,4,-39,937,-111,86,32,11,-31491,-32046,-18778,871,1207
4958,34927,34936,13,-37,930,191,35,38,5,-31335,-31962,-18281,869,1209
4958,35102,35112,17,-23,913,255,56,37,10,-31485,-32189,-18688,870,1211
4958,35277,35287,-2,-44,933,-287,77,32,11,-31467,-32117,-18616,871,1213
4958,35452,35462,9,-40,933,415,35,45,9,-31605,-31992,-18593,871,1215
4958,35629,35639,10,-23,916,415,30,43,3,-31252,-32081,-18706,872,1217
4958,35804,35814,2,-36,922,-127,78,37,17,-31234,-31986,-18575,874,1219
4958,35980,35989,6,-34,924,0,35,41,6,-31503,-31854,-18539,872,1221
4958,36156,36165,14,-35,931,15,70,45,12,-31287,-31986,-18808,877,1223
4958,36331,36341,14,-36,924,-127,40,42,5,-31305,-32213,-18455,871,1225
4958,36506,36516,11,-38,926,-63,51,40,14,-31383,-31950,-18922,870,1227
4958,36689,36699,10,-31,928,-191,56,44,11,-31323,-32016,-18982,872,1229
4958,36866,36876,8,-36,922,-735,52,36,10,-31252,-32046,-18838,875,1231
4958,37041,37051,9,-24,924,159,54,41,9,-31281,-32075,-18634,870,1233
4958,37217,37226,8,-28,928,95,52,41,10,-31329,-32201,-18994,870,1235
4958,37400,37409,2,-29,922,-79,45,40,9,-31383,-32237,-18982,876,1237
4958,37578,37588,10,-29,930,191,56,36,9,-31383,-32040,-18826,873,1239
4958,37754,37763,11,-32,924,-223,48,43,5,-31419,-32273,-18832,877,1241
4958,37929,37939,0,-46,922,-319,62,38,9,-31377,-32303,-18736,871,1243
4958,38106,38116,7,-41,925,-127,43,42,6,-31371,-32177,-18766,870,1245
4958,38281,38291,10,-30,930,63,54,41,12,-31401,-32231,-18784,877,1247
4958,38456,38466,15,-30,938,-79,48,40,14,-31413,-32243,-18287,872,1249
4958,38631,38641,8,-41,930,-303,22,41,13,-31335,-32129,-18622,871,1251
4958,38808,38818,5,-28,920,239,76,36,4,-31389,-32183,-18706,878,1253
4958,38983,38993,12,-42,928,47,50,43,8,-31263,-32004,-18461,871,1255
4958,39171,39181,-2,-36,913,175,50,38,10,-31353,-31878,-18700,873,1257
4958,39348,39358,2,-29,910,191,53,37,-17,-31257,-31854,-18916,876,1259
4958,39523,39533,5,-74,930,271,52,46,-54,-31527,-31914,-18892,867,1261
4958,39699,39709,21,-71,958,-623,59,46,14,-31443,-32004,-18850,870,1263
4958,39874,39884,17,-39,923,127,91,-32,248,-31198,-32147,-18359,871,1265
4958,40060,40070,95,-94,819,0,138,122,248,-30371,-32087,-17419,870,1267
4958,40236,40246,-58,17,1035,351,44,49,74,-31263,32425,-17150,878,1269
4958,40411,40421,71,-52,863,-239,-96,67,57,-31012,31401,-16791,879,1271
4958,40596,40606,43,-108,887,0,126,-24,-32,-31305,30587,-17024,878,1273
4958,40771,40781,-41,171,840,-271,-108,-157,93,-32108,30389,-16940,870,1275
4958,40946,40956,204,-204,777,63,285,388,113,-31090,30856,-16551,871,1277
4958,41121,41131,-221,274,972,335,-187,-433,62,32399,29857,-17407,877,1279
4958,41308,41318,312,-394,839,399,218,458,51,-32646,30318,-17443,872,1281
4958,41480,41489,-332,339,978,-47,50,-20,152,-32179,30377,-16701,872,1283
4958,41655,41665,264,-346,875,-95,16,340,-114,-32030,30210,-16940,872,1285
4958,41832,41842,-28,6,1271,-143,314,-274,212,-31976,30336,-16821,872,1287
4958,42007,42017,73,-90,405,-319,-802,-672,-1,31501,29066,-16916,877,1289
4958,42183,42192,-28,47,1035,0,703,798,-3,31836,27989,-17485,871,1291
4958,42358,42367,-23,-27,1242,319,269,98,9,-30976,30503,-16659,877,1293
4958,42535,42545,4,-4,614,-15,-821,-423,-1,31848,28282,-16880,881,1295
4958,42718,42728,99,-201,792,351,646,249,37,31064,28318,-17144,878,1297
4958,42893,42903,-89,52,1206,287,439,419,142,-31509,31305,-16551,873,1299
4958,43068,43078,87,-119,918,111,-57,-132,10,-31377,31377,-16563,871,1301
4958,43247,43257,21,-72,929,-159,109,59,81,-32042,30773,-16731,872,1303
4958,43422,43432,41,-104,926,415,109,240,50,-31407,31156,-16419,874,1305
4958,43597,43607,36,-116,913,-143,-34,-154,30,-31683,30773,-16605,873,1307
4958,43774,43784,14,-75,920,-319,46,12,-12,-32138,30425,-16551,870,1309
4958,43949,43959,43,-113,929,-207,58,82,-33,-32084,30731,-16611,871,1311
4958,44121,44130,15,-84,930,0,-41,-67,-20,-32281,30515,-16749,875,1313
4958,44296,44306,0,-50,899,-127,-2,-35,3,-32449,30509,-16827,873,1315
4958,44475,44484,-8,-51,946,159,150,115,-8,-32521,30503,-16545,880,1317
4958,44650,44660,23,-92,911,0,-11,70,-18,-32048,30515,-16443,875,1319
4958,44825,44835,3,-49,911,0,66,-38,49,-32449,30653,-17006,871,1321
4958,45002,45012,14,-78,915,-255,59,149,-9,-32048,30509,-16635,872,1323
4958,45177,45187,23,-94,913,223,138,-34,10,-32167,30892,-16892,872,1325
4958,45361,45370,28,-86,902,-431,94,68,-14,-31958,31341,-16378,872,1327
4958,45536,45546,45,-111,930,111,75,80,96,-32179,31479,-16455,871,1329
4958,45713,45723,9,-20,914,0,-145,-129,142,-32401,30671,-16689,870,1331
4958,45889,45899,0,-2,1024,-623,-33,-178,210,32147,29863,-17126,870,1333
4958,46064,46074,41,-282,847,-367,-359,-10,185,31064,28450,-17186,872,1335
4958,46249,46259,-93,-155,844,-335,298,335,-249,32046,30156,-16964,875,1337
4958,46424,46434,-187,165,1054,127,-29,-46,-414,32680,29911,-16635,877,1339
4958,46599,46609,243,108,1003,-111,-34,-177,132,31369,30018,-17724,871,1341
4958,46770,46780,246,-140,816,111,-307,-125,840,29256,28534,-17904,870,1343
4958,46948,46958,-160,-195,798,63,-144,484,257,29603,26319,-16707,872,1345
4958,47123,47133,-301,-54,948,-255,669,386,-338,-32634,27217,-15976,871,1347
4958,47298,47308,28,33,924,127,432,263,-615,-31287,31287,-15701,876,1349
4958,47476,47485,278,-154,1009,207,-266,176,54,-30701,32132,-16497,871,1351
4958,47659,47669,69,-160,877,-175,-319,-599,536,32764,29252,-17479,870,1353
4958,47835,47844,-26,-45,870,-239,-66,134,2193,31130,25714,-17234,877,1355
4958,48018,48027,-143,102,926,-79,-558,-245,1424,26891,21709,-16827,870,1357
4958,48195,48205,-52,143,843,-95,696,505,-1395,26717,21793,-16904,870,1359
4958,48370,48380,-87,-112,872,-303,172,122,-3488,31441,26576,-16868,869,1361
4958,48545,48555,0,-271,939,0,724,196,-2267,-32485,-30824,-16934,877,1363
4958,48720,48730,-47,-213,954,-15,-271,-358,1237,32303,-28729,-16994,880,1365
4958,49012,49022,-30,41,874,415,-522,180,2982,30178,24499,-17365,872,1367
4958,49187,49197,35,206,904,-47,107,264,519,27819,20691,-16455,876,1369
4958,49362,49372,-17,24,861,-175,38,-544,-2187,29717,22469,-16719,876,1371
4958,49539,49548,-43,-83,1006,63,403,57,-1210,31878,26642,-17341,871,1373
4958,49714,49724,-43,34,989,143,306,117,27,-31760,29276,-17455,869,1375
4958,49889,49899,-45,-28,941,207,67,-73,-86,-32269,30282,-18197,872,1377
4958,50064,50074,-21,-76,926,143,24,121,-202,-32090,30695,-18132,873,1379
4958,50243,50253,-5,2,965,31,-60,192,-59,-31718,30545,-18173,872,1381
4958,50418,50428,21,101,817,191,-263,176,-160,-30832,29156,-17317,871,1383
4958,50593,50603,28,41,853,175,-51,-227,-188,-31706,28582,-17623,876,1385
4958,50780,50790,-115,20,970,223,415,-98,203,32506,29833,-18401,875,1387
4958,50956,50965,-18,-78,1072,-575,225,368,-32,-30695,32054,-18628,874,1389
4958,51144,51154,-36,-226,598,127,48,83,-156,-32066,32311,-19012,876,1391
4958,51320,51330,95,-21,965,0,1,131,-115,-31712,32179,-19054,871,1393
4958,51497,51507,48,-8,929,255,40,52,128,-32173,31718,-19071,879,1395
4958,51672,51682,-8,-83,925,159,25,61,68,-32138,31635,-19185,871,1397
4958,51847,51857,56,-36,932,79,49,29,8,-32461,31533,-19042,872,1399
4958,52024,52034,2,-30,918,-111,17,36,8,-32509,31689,-19508,870,1401
4958,52199,52209,1,-48,924,111,37,41,11,-32455,31623,-19425,877,1403
4958,52374,52384,9,-19,913,-191,34,43,10,-32419,31593,-19401,878,1405
4958,52549,52559,11,-45,921,-79,56,44,11,-32491,31826,-19257,878,1407
4958,52727,52737,6,-37,933,127,49,37,6,-32341,31904,-19299,871,1409
4958,52902,52912,11,-31,918,-31,44,41,6,-32389,31922,-19006,871,1411
4958,53077,53087,10,-36,920,207,58,41,9,-32760,31724,-19221,875,1413
4958,53254,53264,20,-36,931,-479,54,36,5,-32724,31946,-19042,878,1415
4958,53437,53447,4,-34,927,0,48,40,8,32644,31946,-19203,871,1417
4958,53613,53622,4,-29,933,-95,50,35,9,-32730,32018,-19233,871,1419
4958,53788,53798,16,-26,922,0,52,35,10,-32616,31862,-19185,871,1421
4958,53965,53975,23,-27,922,-159,52,42,10,-32706,31916,-19341,871,1423
4958,54140,54150,7,-34,924,-63,49,40,9,32650,31844,-19269,873,1425
4958,54315,54325,8,-33,924,143,53,38,10,-32754,31916,-19101,871,1427
4958,54490,54500,4,-27,930,127,49,41,8,-32575,32407,-18958,871,1429
4958,54667,54677,10,-34,922,31,50,42,6,-32616,32167,-19179,869,1431
4958,54842,54852,2,-39,918,351,54,42,11,32656,32054,-19101,878,1433
4958,55017,55027,16,-38,932,159,53,40,6,-32742,32126,-19167,871,1435
4958,55195,55204,10,-29,930,223,51,36,8,-32658,31994,-19227,874,1437
4958,55370,55380,4,-22,926,-79,58,42,4,-32610,31994,-19550,870,1439
4958,55545,55555,10,-32,924,-175,49,38,11,-32604,32060,-18832,874,1441
4958,55720,55730,1,-27,930,0,59,42,13,-32736,32173,-19461,871,1443
4958,55906,55916,10,-22,928,-207,57,45,11,32656,32078,-19167,874,1445
4958,56089,56099,6,-26,937,-335,60,42,9,32758,31922,-19359,871,1447
4958,56265,56274,7,-42,926,-175,53,43,10,-32736,31910,-19215,871,1449
4958,56442,56452,8,-17,920,-111,58,41,14,-32616,31868,-19508,871,1451
4958,56617,56627,6,-32,927,95,50,40,10,-32694,31964,-19239,870,1453
4958,56792,56802,6,-32,926,95,49,41,10,32686,31659,-19323,870,1455
4958,56975,56985,0,-36,932,111,49,38,12,-32640,31784,-19467,870,1457
4958,57152,57162,9,-33,928,-303,50,37,9,-32766,31976,-19467,870,1459
4958,57325,57335,16,-29,936,-111,54,38,6,-32724,31922,-19167,872,1461
4958,57500,57510,10,-33,932,-399,52,36,11,-32551,31784,-19455,872,1463
4958,57678,57688,6,-37,926,-191,52,40,6,-32646,31898,-19191,876,1465
4958,57853,57863,21,-45,926,0,51,44,4,-32503,31886,-19616,872,1467
4958,58028,58038,6,-37,922,-223,50,40,16,-32581,31808,-19299,871,1469
4958,58204,58213,13,-34,945,335,52,42,11,-32670,31874,-19185,878,1471
4958,58381,58391,6,-34,926,239,56,38,11,-32401,31808,-19538,875,1473
4958,58556,58566,4,-34,930,63,53,40,10,-32604,31647,-19586,870,1475
4958,58739,58749,13,-34,927,-127,53,37,8,-32610,31772,-19790,873,1477
4958,58916,58926,15,-39,927,79,52,35,11,-32557,31892,-19323,871,1479
4958,59091,59101,4,-30,932,-175,43,38,8,-32652,31742,-19497,872,1481
4958,59267,59276,8,-38,921,-143,56,37,8,-32569,31838,-19676,873,1483
4958,59442,59451,16,-35,922,-47,54,41,6,-32485,31790,-19431,868,1485
4958,59619,59629,4,-41,929,95,51,38,11,-32700,31790,-19245,873,1487
4958,59807,59817,10,-36,921,447,49,41,8,-32652,31892,-19329,872,1489
4958,59980,59990,11,-39,929,287,50,37,8,-32598,31748,-19598,870,1491
4958,60155,60165,16,-31,931,255,51,45,9,32716,32018,-19544,871,1493
4958,60334,60344,4,-32,916,47,53,40,13,-32652,31964,-19706,872,1495
4958,60526,60536,7,-36,932,-175,45,38,9,32680,31934,-19646,875,1497
4958,60701,60711,13,-28,932,47,54,42,12,-32706,31808,-19514,871,1499
4958,60878,60888,10,-36,917,-255,46,40,12,32680,32000,-19455,877,1501
4958,61053,61063,5,-35,927,319,46,38,11,-32670,31838,-19658,876,1503
4958,61229,61238,13,-38,924,0,46,40,5,-32575,32108,-19377,871,1505
4958,61411,61421,5,-34,935,-239,49,40,9,-32760,31910,-19634,872,1507
4958,61590,61600,13,-26,923,127,49,40,10,32722,31910,-19628,877,1509
4958,61765,61775,13,-32,918,159,56,38,11,-32688,32120,-19485,871,1511
4958,61941,61950,7,-32,926,-95,52,37,8,-32748,31976,-19742,871,1513
4958,62118,62128,6,-25,927,-143,50,42,11,32740,31976,-19520,877,1515
4958,62293,62303,10,-30,931,239,52,41,11,32710,31844,-19497,877,1517
4958,62468,62478,6,-25,923,-111,54,45,12,32758,31623,-19940,872,1519
4958,62641,62651,11,-34,937,351,56,44,12,-32754,31916,-20077,868,1521
4958,62818,62828,1,-33,930,-191,54,43,10,-32521,31988,-19556,876,1523
4958,62993,63003,13,-35,931,223,45,35,10,-32682,31892,-19550,870,1525
4958,63169,63179,8,-21,928,-79,51,34,10,-32551,32066,-19694,880,1527
4958,63346,63356,18,-30,923,-159,52,42,13,-32419,32000,-19586,875,1529
4958,63521,63531,10,-32,941,143,52,41,6,-32539,31952,-19113,873,1531
4958,63696,63706,10,-34,935,-175,50,38,12,-32377,31970,-19532,870,1533
4958,63872,63881,8,-37,936,399,59,40,12,-32383,31988,-19251,877,1535
4958,64058,64068,9,-34,920,-319,52,40,8,-32395,32221,-19508,871,1537
4958,64233,64243,6,-36,933,-239,54,41,11,-32395,32012,-19131,871,1539
4958,64408,64418,4,-33,920,15,49,40,9,-32569,32215,-19431,869,1541
4958,64586,64596,16,-37,925,271,54,41,12,-32179,32096,-19341,878,1543
4958,64761,64771,7,-39,923,351,56,44,11,-32575,31922,-19401,871,1545
4958,64936,64946,8,-29,928,47,50,35,6,-32263,32036,-19365,872,1547
4958,65119,65129,8,-41,928,79,50,33,5,-32383,31988,-19006,873,1549
4958,65304,65314,11,-34,920,543,52,36,9,-32443,32060,-19479,872,1551
4958,65479,65489,11,-31,920,15,49,37,10,32758,32048,-19604,877,1553
4958,65654,65664,11,-39,922,127,48,43,10,-32622,31862,-19604,872,1555
4958,65830,65840,12,-32,936,271,51,43,2,-32515,32024,-19323,877,1557
4958,66008,66018,7,-37,924,-399,51,45,9,-32485,31982,-19221,871,1559
4958,66184,66194,11,-31,915,95,49,41,6,-32712,32138,-19664,870,1561
4958,66359,66368,7,-35,924,-95,49,38,12,32752,32155,-19251,873,1563
4958,66536,66545,7,-23,927,-495,51,41,10,-32533,32060,-19443,872,1565
4958,66717,66727,15,-34,925,351,49,44,10,-32664,32000,-19407,879,1567
4958,66892,66902,5,-28,926,47,46,43,9,-32569,32197,-19341,872,1569
4958,67068,67077,8,-26,926,-367,54,42,12,-32736,32030,-19491,873,1571
4958,67246,67256,7,-37,922,-415,46,37,6,-32527,32042,-19437,873,1573
4958,67422,67431,5,-41,933,319,49,35,9,-32407,31910,-19646,872,1575
4958,67597,67606,9,-27,926,95,43,36,11,-32569,31928,-19161,871,1577
4958,67774,67784,8,-27,920,-239,50,35,8,-32587,31916,-19245,871,1579
4958,67947,67957,14,-36,928,-79,60,43,12,-32628,31874,-19628,879,1581
4958,68122,68132,17,-39,926,447,49,41,5,-32575,31886,-19329,878,1583
4958,68298,68307,6,-36,931,-415,52,40,8,-32515,31976,-19473,875,1585
4958,68475,68485,6,-41,928,335,51,38,8,-32485,31748,-19059,878,1587
4958,68650,68660,5,-32,926,271,51,42,11,-32431,31958,-19233,873,1589
4958,68825,68835,14,-34,914,111,46,36,8,-32395,31994,-19305,878,1591
4958,69002,69012,6,-35,918,479,56,40,10,-32353,31982,-19443,878,1593
4958,69177,69187,8,-30,926,0,48,41,13,-32533,31934,-19257,870,1595
4958,69359,69369,6,-28,926,287,51,35,8,-32563,32066,-19347,872,1597
4958,69555,69564,10,-34,924,-367,53,38,6,-32688,32072,-19550,872,1599
4958,69732,69742,8,-34,926,255,50,37,6,-32551,32132,-19395,871,1601
4958,69907,69917,19,-32,924,527,50,40,8,-32706,32317,-19556,868,1603
4958,70082,70092,12,-36,920,191,53,41,10,-32281,32108,-19389,878,1605
4958,70260,70269,5,-32,922,0,52,43,5,-32604,32191,-19227,873,1607
4958,70435,70444,19,-23,922,-159,52,33,8,-32760,32203,-19389,877,1609
4958,70608,70617,8,-24,915,15,49,40,10,-32503,32209,-19748,870,1611
4958,70783,70793,12,-33,923,383,53,38,10,32734,32167,-19514,878,1613
4958,70960,70970,4,-36,930,-319,54,32,4,-32551,31922,-19592,871,1615
4958,71136,71146,17,-36,930,-63,59,41,5,-32604,31958,-19610,872,1617
4958,71311,71321,15,-32,926,383,48,41,10,-32503,31946,-19676,873,1619
4958,71497,71507,13,-32,933,367,52,42,6,-32509,31982,-19209,871,1621
4958,71675,71685,10,-34,924,15,58,42,6,-32581,32096,-19215,872,1623
4958,71850,71860,3,-28,915,-367,49,36,9,32716,31982,-19556,871,1625
4958,72032,72041,10,-32,926,303,56,40,18,-32521,31958,-19455,870,1627
4958,72209,72219,6,-28,926,575,53,35,8,-32634,32054,-19568,873,1629
4958,72384,72394,18,-39,930,0,50,36,13,-32437,32054,-19730,872,1631
4958,72560,72569,3,-42,930,-351,48,38,8,-32551,32048,-19365,877,1633
4958,72735,72745,6,-32,930,-415,50,44,8,-32461,31826,-19748,873,1635
4958,72913,72923,8,-42,924,-63,49,33,12,-32425,31826,-19652,871,1637
4958,73089,73098,13,-34,922,-319,53,44,10,-32365,31958,-19473,875,1639
4958,73262,73272,17,-35,923,-319,48,34,14,-32569,31760,-19419,872,1641
4958,73447,73456,7,-32,933,191,45,37,10,-32491,31940,-19520,871,1643
4958,73622,73632,11,-34,916,287,50,36,6,-32353,31784,-19437,873,1645
4958,73797,73807,18,-24,925,-63,50,38,5,-32527,31748,-19311,868,1647
4958,73972,73982,12,-30,926,-31,52,40,5,-32754,31575,-19544,873,1649
4958,74149,74159,10,-32,928,207,54,40,12,-32676,31742,-19335,870,1651
4958,74324,74334,6,-43,929,15,44,42,11,32764,31970,-19137,871,1653
4958,74499,74509,4,-39,928,0,56,40,11,-32634,32084,-19377,871,1655
4958,74684,74694,7,-26,926,303,56,40,6,-32700,32138,-19580,872,1657
4958,74867,74877,21,-30,920,-31,53,40,8,-32515,32149,-19562,872,1659
4958,75043,75053,10,-30,930,-383,48,36,4,-32563,32114,-19455,874,1661
