count,tInitial,tFinal,accel_x,accel_y,accel_z,accel_high,gyro_x,gyro_y,gyro_z,mag_x,mag_y,mag_z,temp,packet_num
4958,1267,1277,123,84,879,-623,199,-821,110,28885,-16642,-13139,919,1
4958,1409,1419,127,83,879,-975,194,-818,107,28861,-16373,-12935,920,2
4958,1432,1441,129,92,870,-879,199,-818,108,28789,-16427,-12869,923,3
4958,1454,1464,137,94,880,-1135,199,-824,110,28861,-16570,-12839,925,4
4958,1477,1487,121,86,880,-495,202,-816,108,28891,-16504,-12612,920,5
4958,1500,1510,123,89,883,-959,196,-822,112,28639,-16510,-12917,921,6
4958,1522,1532,126,91,887,-927,197,-821,107,28663,-16474,-12851,922,7
4958,1545,1555,120,87,874,-703,196,-818,107,28711,-16564,-12702,922,8
4958,1568,1578,128,91,873,-959,196,-820,109,28657,-16463,-12869,917,9
4958,1591,1600,123,88,885,-911,195,-817,108,28657,-16469,-12857,920,10
4958,1613,1623,119,87,878,-623,199,-820,105,28645,-16367,-12636,923,11
4958,1636,1646,130,91,884,-1087,196,-821,108,28663,-16379,-12863,924,12
4958,1659,1669,123,93,886,-943,195,-818,107,28639,-16588,-12774,920,13
4958,1681,1691,127,90,884,-415,194,-821,109,28693,-16319,-12881,921,14
4958,1730,1740,127,89,877,-847,202,-814,106,28771,-16265,-12690,921,15
4958,1753,1763,113,91,883,-591,199,-812,106,28795,-16325,-12780,921,16
4958,1776,1785,124,83,880,-1327,196,-818,107,28813,-16415,-12750,918,17
4958,1798,1808,129,88,885,-975,201,-822,110,28615,-16498,-12648,920,18
4958,1821,1831,134,93,883,-799,195,-823,107,28753,-16451,-12935,919,19
4958,1844,1854,125,91,887,-399,196,-822,106,28891,-16540,-12935,920,20
4958,1867,1877,128,95,893,-751,196,-818,107,28771,-16492,-12869,920,21
4958,1890,1900,127,91,881,-1055,195,-817,105,28765,-16427,-13013,922,22
4958,1913,1923,128,76,891,-511,195,-821,109,28687,-16684,-13019,921,23
4958,1936,1946,121,96,885,-1215,194,-817,112,28837,-16606,-12881,920,24
4958,1959,1968,123,93,883,-959,196,-822,110,28807,-16391,-12570,922,25
4958,1981,1991,125,84,891,-639,202,-822,109,28867,-16295,-12636,923,26
4958,2004,2014,121,87,885,-735,200,-816,109,28663,-16451,-12630,922,27
4958,2027,2037,128,92,888,-1167,194,-821,109,28645,-16552,-12522,920,28
4958,2077,2087,132,82,889,-767,196,-820,108,28609,-16498,-12540,918,29
4958,2099,2109,123,90,887,-1023,193,-823,108,28633,-16558,-12792,917,30
4958,2122,2132,135,89,898,-799,203,-820,102,28711,-16516,-12845,923,31
4958,2145,2155,122,90,884,-719,202,-821,106,28555,-16439,-12492,921,32
4958,2168,2178,117,80,887,-975,200,-823,109,28651,-16439,-12504,921,33
4958,2190,2200,130,92,887,-847,200,-825,107,28843,-16498,-12690,922,34
4958,2213,2223,128,87,894,-847,199,-821,107,28418,-16427,-12660,920,35
4958,2236,2246,134,91,898,-367,197,-816,110,28621,-16373,-12762,919,36
4958,2259,2269,128,88,892,-735,200,-821,107,28507,-16439,-12426,922,37
4958,2281,2291,127,88,896,-1167,197,-820,107,28651,-16486,-12492,921,38
4958,2304,2314,123,91,885,-431,197,-821,108,28633,-16684,-12636,919,39
4958,2327,2337,128,87,891,-527,196,-813,106,28711,-16738,-12738,918,40
4958,2350,2360,128,87,890,-1167,202,-817,107,28867,-16253,-12875,920,41
4958,2373,2383,128,97,887,-1119,200,-824,110,28669,-16295,-12756,923,42
4958,2399,2409,126,93,889,-1103,195,-818,110,28681,-16528,-12839,920,43
4958,2422,2432,129,84,894,-1071,192,-820,108,28813,-16355,-12881,920,44
4958,2444,2454,128,90,887,-575,202,-821,112,28765,-16492,-13097,918,45
4958,2467,2477,117,96,890,-1023,194,-823,110,28723,-16445,-12923,921,46
4958,2490,2500,123,92,893,-1103,196,-818,107,28490,-16427,-12546,919,47
4958,2513,2523,132,85,900,-831,194,-822,115,28567,-16277,-12480,919,48
4958,2535,2545,129,91,889,-863,193,-814,106,28615,-16397,-12337,920,49
4958,2558,2568,127,82,893,-1135,200,-821,106,28340,-16403,-12355,918,50
4958,2581,2591,127,95,895,-1103,195,-820,107,28681,-16606,-12516,921,51
4958,2604,2614,119,91,898,-815,195,-816,105,28573,-16612,-12654,921,52
4958,2626,2636,126,94,889,-655,201,-817,107,28615,-16367,-12528,922,53
4958,2649,2659,132,87,893,-751,195,-816,106,28645,-16451,-12546,923,54
4958,2672,2682,119,91,899,-655,199,-814,102,28537,-16594,-12780,923,55
4958,2695,2705,128,87,893,-1183,196,-825,109,28645,-16684,-12893,920,56
4958,2721,2731,119,91,893,-479,196,-824,106,28507,-16451,-12504,923,57
4958,2744,2754,118,93,893,-927,193,-818,112,28597,-16421,-12522,918,58
4958,2766,2776,129,92,898,-623,196,-814,102,28603,-16480,-12636,925,59
4958,2789,2799,123,92,896,-911,197,-818,109,28549,-16277,-12720,918,60
4958,2812,2822,131,90,891,-815,196,-822,112,28472,-16612,-12606,922,61
4958,2835,2844,130,89,896,-1199,197,-824,107,28561,-16445,-12390,921,62
4958,2857,2867,133,88,896,-783,195,-825,101,28507,-16361,-12618,921,63
4958,2880,2890,123,90,902,-815,195,-821,108,28495,-16480,-12432,925,64
4958,2903,2913,121,88,888,-495,193,-822,108,28561,-16528,-12708,924,65
4958,2926,2935,121,91,898,-687,196,-818,108,28525,-16361,-12636,919,66
4958,2948,2958,119,81,891,-1263,196,-823,110,28663,-16391,-12636,921,67
4958,2971,2981,126,90,896,-1199,196,-818,109,28549,-16361,-12660,919,68
4958,2994,3004,121,80,898,-815,194,-820,106,28442,-16433,-12684,921,69
4958,3017,3026,121,92,896,-1167,197,-816,102,28561,-16289,-12684,922,70
4958,3043,3053,128,89,898,-175,199,-818,109,28609,-16385,-12786,921,71
4958,3066,3075,130,87,902,-543,199,-820,106,28531,-16337,-12941,922,72
4958,3088,3098,126,93,886,-847,189,-818,106,28627,-16403,-12462,919,73
4958,3111,3121,125,90,902,-1039,197,-824,106,28759,-16337,-12959,921,74
4958,3134,3144,117,89,897,-1327,194,-823,106,28687,-16307,-12816,917,75
4958,3157,3166,462,-20,2086,-799,-697,2957,4085,28663,-16528,-12810,920,76
4958,3179,3189,123,91,896,-735,233,-638,-118,28669,-16516,-12528,920,77
4958,3202,3212,116,97,890,-751,175,-396,-96,28591,-16486,-12851,921,78
4958,3225,3235,132,89,892,-463,126,-200,-75,28717,-16397,-12528,921,79
4958,3247,3257,104,94,891,-1087,94,-56,-69,28406,-16367,-12780,923,80
4958,3270,3280,128,95,901,-1039,61,67,-37,28537,-16337,-12504,924,81
4958,3293,3303,121,93,904,-895,35,161,-14,28316,-16474,-12744,918,82
4958,3316,3326,121,88,883,-1343,25,220,-22,28585,-16265,-12636,919,83
4958,3338,3348,141,93,902,-623,9,261,-29,28519,-16469,-12702,919,84
4958,3365,3375,117,98,898,-415,-2,3,-24,28735,-16373,-12684,923,85
4958,3387,3397,122,87,894,-735,-3,317,-17,28525,-16373,-12474,921,86
4958,3410,3420,114,89,878,-687,-6,321,-13,28501,-16534,-12510,919,87
4958,3433,3443,130,91,884,-927,-4,324,-9,28555,-16534,-12594,916,88
4958,3456,3465,114,87,891,-1055,-1,315,0,28573,-16534,-12792,922,89
4958,3488,3498,128,89,902,-815,4,304,-5,28478,-16421,-12672,920,90
4958,3511,3521,115,84,905,-815,5,295,-1,28424,-16546,-12798,921,91
4958,3534,3544,127,91,902,-591,5,281,5,28603,-16415,-12462,920,92
4958,3557,3566,121,93,905,-975,-2,275,16,28555,-16277,-12582,916,93
4958,3579,3589,119,90,900,-591,4,263,17,28501,-16558,-12696,921,94
4958,3602,3612,114,92,873,-367,8,247,28,28394,-16498,-12456,919,95
4958,3625,3635,127,87,883,-1007,12,229,35,28418,-16373,-12672,920,96
4958,3647,3657,127,88,904,-863,11,225,43,28585,-16552,-12696,922,97
4958,3674,3684,117,88,906,-1103,14,209,48,28501,-16474,-12642,923,98
4958,3696,3706,123,95,885,-815,27,193,50,28537,-16588,-12696,922,99
4958,3719,3729,123,89,890,-1247,25,175,52,28448,-16480,-13043,920,100
4958,3742,3752,126,88,885,-1119,18,167,50,28579,-16457,-12929,920,101
4958,3765,3774,118,89,907,-431,25,153,53,28531,-16379,-12684,923,102
4958,3787,3797,124,96,906,-575,33,146,49,28525,-16193,-12881,921,103
4958,3810,3820,120,86,891,-831,40,138,51,28537,-16528,-12905,925,104
4958,3833,3843,120,83,886,-943,40,116,52,28543,-16379,-12606,919,105
4958,3856,3865,117,89,898,-1071,34,113,50,28448,-16510,-12648,922,106
4958,3878,3888,116,89,902,-1215,41,94,48,28525,-16403,-12504,921,107
4958,3901,3911,127,88,903,-1167,35,82,46,28573,-16379,-11193,917,108
4958,3924,3934,123,86,883,-831,43,69,41,28424,-16463,-12732,918,109
4958,3946,3956,121,89,889,-895,49,59,45,28783,-16558,-12726,919,110
4958,3969,3979,135,89,904,-703,50,45,36,28490,-16498,-12528,922,111
4958,3995,4005,127,87,879,-1263,51,53,35,28603,-16648,-12612,916,112
4958,4018,4028,119,91,884,-927,50,57,30,28484,-16427,-12804,922,113
4958,4041,4051,128,87,896,-847,45,48,37,28645,-16564,-12708,920,114
4958,4064,4073,116,83,907,-1183,53,54,36,28573,-16504,-12438,928,115
4958,4086,4096,121,92,899,-1439,46,54,34,28466,-16684,-12486,921,116
4958,4109,4119,120,87,893,-623,51,53,41,28657,-16361,-12786,924,117
4958,4132,4142,128,91,893,-1055,44,54,33,28525,-16367,-12648,921,118
4958,4155,4164,130,93,906,-991,52,51,42,28466,-16265,-12654,917,119
4958,4177,4187,126,90,906,-671,50,56,37,28627,-16415,-12827,922,120
4958,4208,4217,126,94,893,-815,49,50,28,28466,-16391,-12636,921,121
4958,4230,4240,120,87,904,-1183,46,52,33,28663,-16391,-12378,922,122
4958,4253,4263,122,91,893,-847,56,54,38,28543,-16283,-12474,918,123
4958,4276,4286,119,91,893,-1423,49,53,37,28639,-16445,-12750,918,124
4958,4299,4308,128,90,883,-799,48,51,36,28705,-16367,-12414,920,125
4958,4325,4335,117,91,899,-815,49,50,41,28705,-16337,-12816,922,126
4958,4348,4357,122,90,893,-1183,51,56,35,28615,-16469,-12648,921,127
4958,4370,4380,121,90,891,-687,52,49,34,28579,-16253,-12528,924,128
4958,4393,4403,127,93,900,-655,49,57,35,28729,-16277,-12552,920,129
4958,4416,4426,126,84,905,-559,51,57,42,28615,-16474,-12726,920,130
4958,4438,4448,129,95,898,-1039,50,51,34,28717,-16415,-12774,917,131
4958,4461,4471,122,80,880,-719,44,57,35,28490,-16540,-12786,921,132
4958,4484,4494,125,87,887,-1231,49,52,36,28609,-16319,-12833,917,133
4958,4507,4517,123,87,912,-815,48,50,37,28591,-16373,-12774,917,134
4958,4529,4539,123,102,897,-767,44,51,35,28525,-16289,-12816,922,135
4958,4552,4562,121,84,893,-671,50,53,38,28729,-16181,-12462,924,136
4958,4575,4585,115,89,893,-895,45,51,35,28507,-16187,-12402,920,137
4958,4598,4607,128,95,909,-911,48,44,35,28609,-16355,-12636,920,138
4958,4620,4630,123,91,917,-799,53,58,38,28639,-16205,-12654,921,139
4958,4647,4656,119,90,907,-831,49,54,34,28424,-16283,-12738,919,140
4958,4669,4679,121,92,894,-783,51,53,36,28418,-16439,-12696,924,141
4958,4692,4702,127,95,902,-1231,50,51,32,28681,-16391,-12672,922,142
4958,4715,4725,125,85,889,-1119,44,52,38,28627,-16271,-12822,920,143
4958,4738,4747,114,88,901,-1183,44,53,32,28507,-16486,-12869,922,144
4958,4760,4770,128,91,917,-719,49,46,30,28519,-16307,-12696,925,145
4958,4783,4793,118,98,906,-831,48,56,32,28687,-16211,-13133,921,146
4958,4806,4816,111,81,889,-975,54,52,40,28765,-16235,-12875,920,147
4958,4828,4838,126,84,892,-1087,52,52,38,28525,-16534,-12750,922,148
4958,4851,4861,126,87,917,-751,51,51,32,28513,-16307,-12935,919,149
4958,4874,4884,124,89,904,-527,46,51,35,28573,-16367,-12995,920,150
4958,4897,4906,123,89,892,-1039,49,48,38,28687,-16319,-12816,921,151
4958,4919,4929,124,84,902,-943,48,52,30,28705,-16397,-12648,920,152
4958,4942,4952,129,96,911,-687,43,49,38,28525,-16229,-12684,919,153
4958,4968,4978,113,96,887,-991,49,46,37,28573,-16343,-12893,914,154
4958,4991,5001,123,88,910,-303,49,53,41,28537,-16205,-13013,922,155
4958,5014,5023,126,91,902,-1263,49,53,35,28567,-16277,-12905,924,156
4958,5036,5046,117,89,918,-671,53,52,32,28711,-16295,-12798,919,157
4958,5059,5069,123,89,898,-1343,46,48,37,28412,-16474,-12833,921,158
4958,5082,5092,131,99,895,-1327,45,49,37,28627,-16331,-12923,922,159
4958,5104,5114,120,92,891,-511,46,54,35,28460,-16474,-12732,920,160
4958,5127,5137,115,88,898,-1119,48,48,29,28591,-16367,-13085,919,161
4958,5150,5160,123,90,906,-895,48,48,32,28430,-16540,-12780,918,162
4958,5173,5182,121,91,893,-495,52,52,30,28388,-16540,-12666,920,163
4958,5195,5205,130,91,889,-575,44,58,43,28633,-16397,-12899,918,164
4958,5218,5228,128,85,899,-735,51,53,40,28454,-16439,-12863,920,165
4958,5241,5251,121,91,904,-1263,50,56,34,28394,-16492,-12678,923,166
4958,5263,5273,127,89,895,-1023,50,49,35,28262,-16367,-12923,920,167
4958,5290,5300,123,84,902,-239,50,52,35,28430,-16343,-12905,922,168
4958,5313,5322,128,90,900,-879,49,54,34,28334,-16337,-12929,919,169
4958,5335,5345,132,92,898,-927,51,50,34,28244,-16385,-12756,922,170
4958,5358,5368,126,82,897,-1135,52,56,38,28340,-16121,-13043,922,171
4958,5381,5391,125,93,906,-863,48,49,38,28244,-16055,-13181,921,172
4958,5403,5413,128,97,902,-751,50,50,35,28244,-16259,-12804,919,173
4958,5448,5458,120,89,889,-767,46,52,37,28394,-16253,-12971,918,174
4958,5470,5480,123,93,900,-815,53,51,35,28346,-16241,-12684,921,175
4958,5493,5503,124,87,897,-799,50,50,30,28220,-16379,-12977,921,176
4958,5516,5526,127,91,901,-1535,51,50,34,28250,-16367,-12941,921,177
4958,5539,5548,124,95,902,-751,46,51,33,28166,-16205,-12654,919,178
4958,5561,5571,123,88,897,-767,52,51,36,28250,-16121,-13019,922,179
4958,5584,5594,122,93,902,-1071,46,56,34,28412,-16193,-12923,921,180
4958,5610,5620,126,95,883,-1327,49,57,30,28466,-16265,-12851,918,181
4958,5633,5643,120,97,896,-655,50,57,40,28400,-16271,-12756,919,182
4958,5656,5665,126,84,900,-799,44,49,33,28328,-16373,-13241,923,183
4958,5678,5688,131,97,889,-1071,51,52,36,28232,-16349,-12899,920,184
4958,5701,5711,124,89,902,-879,49,48,33,28352,-16337,-12624,919,185
4958,5724,5733,118,93,897,-367,48,53,35,28340,-16403,-12899,916,186
4958,5746,5756,120,87,904,-895,44,52,36,28328,-16235,-13073,920,187
4958,5769,5779,116,92,891,-959,48,57,33,28238,-16397,-12420,926,188
4958,5792,5802,121,90,891,-623,50,51,35,28328,-16385,-12851,923,189
4958,5814,5824,120,93,897,-575,46,45,36,28244,-16451,-12546,921,190
4958,5837,5847,122,93,888,-1375,44,48,35,28244,-16337,-12600,923,191
4958,5860,5870,118,93,903,-1263,49,44,30,28364,-16385,-12666,919,192
4958,5882,5892,128,89,900,-991,48,52,33,28172,-16367,-12331,923,193
4958,5905,5915,133,95,902,-703,51,51,33,28478,-16187,-12486,921,194
4958,5931,5941,125,93,892,-847,51,48,34,28460,-16325,-12486,921,195
4958,5954,5964,122,82,893,-783,52,53,33,28436,-16540,-12528,922,196
4958,5977,5986,121,92,902,-1087,53,54,36,28250,-16492,-12702,920,197
4958,5999,6009,115,86,890,-1215,51,53,35,28388,-16469,-12432,920,198
4958,6022,6032,116,93,904,-1119,51,57,40,28310,-16289,-12259,921,199
4958,6045,6055,119,89,900,-1247,49,53,35,28346,-16331,-12522,917,200
4958,6067,6077,122,95,888,-1519,52,53,37,28490,-16103,-12432,925,201
4958,6090,6100,126,89,887,-991,51,50,36,28525,-16355,-12157,919,202
4958,6113,6123,121,87,901,-1071,52,48,33,28364,-16540,-12678,919,203
4958,6135,6145,133,97,900,-735,52,49,40,28501,-16247,-12768,922,204
4958,6158,6168,124,87,919,-1199,45,53,36,28394,-16433,-12863,922,205
4958,6181,6191,123,95,904,-1327,45,59,32,28304,-16445,-13031,923,206
4958,6203,6213,118,88,905,-911,48,56,33,28352,-16367,-13103,920,207
4958,6226,6236,123,84,891,-783,50,46,41,28448,-16397,-12893,916,208
4958,6252,6262,130,88,919,-783,50,57,38,28579,-16241,-12624,921,209
4958,6275,6285,121,90,904,-975,51,54,38,28382,-16379,-12833,922,210
4958,6298,6308,121,87,901,-1087,50,49,40,28274,-16343,-12792,923,211
4958,6320,6330,112,83,885,-1039,57,53,33,28394,-16439,-12528,920,212
4958,6343,6353,117,90,908,-863,50,51,37,28663,-16361,-12792,920,213
4958,6366,6376,121,96,908,-751,48,51,35,28645,-16421,-12642,917,214
4958,6388,6398,132,95,910,-1007,48,54,33,28561,-16624,-12582,922,215
4958,6411,6421,123,90,890,-511,54,50,40,28400,-16540,-12486,922,216
4958,6434,6443,116,79,895,-911,45,51,37,28370,-16457,-12738,926,217
4958,6456,6466,120,101,909,-815,51,54,33,28430,-16403,-12869,923,218
4958,6479,6489,127,96,901,-799,45,51,43,28382,-16379,-12582,917,219
4958,6502,6512,127,88,902,-767,54,50,38,28519,-16385,-12582,920,220
4958,6524,6534,126,82,903,-815,49,48,30,28214,-16289,-12480,920,221
4958,6547,6557,123,91,898,-799,43,50,35,28340,-16409,-12510,923,222
4958,6573,6583,133,79,891,-1087,57,52,37,28058,-16235,-12576,923,223
4958,6596,6606,130,96,900,-751,42,52,36,28256,-16235,-12624,923,224
4958,6619,6629,121,89,900,-1215,45,48,33,28208,-16145,-12600,919,225
4958,6641,6651,116,97,900,-943,46,51,43,28250,-16319,-12768,920,226
4958,6664,6674,123,94,902,-1215,53,51,42,28124,-16253,-12678,923,227
4958,6687,6697,115,84,896,-671,49,56,33,28238,-16253,-12624,919,228
4958,6710,6719,118,88,902,-959,52,49,36,28160,-16385,-12893,920,229
4958,6732,6742,123,92,897,-527,48,50,38,28250,-16379,-12630,918,230
4958,6755,6765,122,95,899,-1199,46,48,33,28208,-16187,-12702,921,231
4958,6778,6788,121,93,898,-1519,52,48,36,28262,-16391,-12726,918,232
4958,6801,6810,124,96,906,-559,53,48,36,28088,-16421,-12600,921,233
4958,6823,6833,118,85,902,-703,51,51,28,28346,-16307,-12498,922,234
4958,6846,6856,130,90,903,-655,44,52,35,28208,-16343,-12618,916,235
4958,6869,6879,119,90,896,-1039,48,50,33,28478,-16259,-12875,924,236
4958,6895,6905,126,83,893,-815,49,54,30,28220,-16427,-12708,921,237
4958,6918,6927,127,93,900,-1071,51,56,37,28358,-16211,-12618,920,238
4958,6940,6950,125,93,900,-1455,51,49,34,28316,-16229,-12786,923,239
4958,6963,6973,127,84,889,-335,50,48,40,28340,-16181,-12582,915,240
4958,6986,6996,118,91,901,-847,49,48,34,28424,-16229,-12408,926,241
4958,7016,7026,119,87,897,-1007,51,57,35,28531,-16289,-12540,919,242
4958,7039,7048,127,91,904,-1007,52,52,36,28388,-16355,-12558,919,243
4958,7061,7071,126,89,900,-943,48,51,40,28472,-16181,-12450,924,244
4958,7084,7094,125,93,908,-1039,44,52,32,28292,-16313,-12582,917,245
4958,7107,7116,117,87,902,-1087,48,56,38,28394,-16367,-12546,921,246
4958,7129,7139,119,91,892,-1247,48,50,37,28448,-16457,-12612,921,247
4958,7152,7162,124,90,902,-927,48,54,35,28579,-16534,-12708,921,248
4958,7175,7185,123,96,902,-687,49,52,36,28382,-16445,-12426,921,249
4958,7197,7207,123,89,897,-863,51,49,38,28513,-16409,-12929,920,250
4958,7224,7233,121,90,891,-815,53,45,33,28519,-16433,-12762,919,251
4958,7246,7256,123,86,889,-927,52,51,35,28388,-16552,-12570,920,252
4958,7269,7279,118,90,900,-847,49,45,35,28304,-16421,-12833,917,253
4958,7292,7301,125,96,901,-1119,53,49,35,28430,-16205,-12881,917,254
4958,7314,7324,119,85,897,-543,43,52,35,28388,-16349,-12678,923,255
4958,7337,7347,124,89,902,-879,49,57,34,28424,-16259,-12540,920,256
4958,7360,7369,115,89,908,-1087,45,56,36,28358,-16391,-12726,924,257
4958,7382,7392,116,87,893,-575,45,52,33,28519,-16409,-12414,918,258
4958,7405,7415,132,88,909,-1055,50,56,36,28322,-16235,-12528,918,259
4958,7428,7437,123,93,903,-1151,54,54,35,28208,-16199,-12295,928,260
4958,7450,7460,121,91,898,-991,46,52,35,28340,-16247,-12295,921,261
4958,7473,7483,122,100,895,-991,53,54,33,28250,-16109,-12528,924,262
4958,7496,7505,128,94,908,-735,49,49,36,28370,-16031,-12432,920,263
4958,7522,7532,121,95,901,-1103,52,49,42,28226,-16067,-12642,917,264
4958,7545,7554,123,87,898,-1263,48,52,36,28364,-16337,-12313,921,265
4958,7567,7577,125,90,898,-1119,48,50,34,28244,-16349,-12522,922,266
4958,7590,7600,119,94,896,-447,43,48,33,28208,-16361,-12516,921,267
4958,7612,7622,110,88,899,-815,46,49,34,28232,-16295,-12582,921,268
4958,7635,7645,126,87,901,-895,51,53,35,28597,-16097,-12684,920,269
4958,7658,7668,114,89,894,-351,50,51,36,28304,-16379,-12612,921,270
4958,7680,7690,126,93,900,-1183,49,46,33,28370,-16157,-12642,923,271
4958,7703,7713,117,91,892,-943,53,44,34,28226,-16211,-12690,921,272
4958,7726,7736,123,95,900,-463,51,48,33,28513,-16451,-12528,921,273
4958,7748,7758,126,96,897,-911,54,51,34,28579,-16127,-12714,919,274
4958,7771,7781,132,97,900,-1055,49,51,32,28579,-16361,-12582,916,275
4958,7794,7804,120,91,898,-879,48,51,37,28370,-16175,-12540,918,276
4958,7816,7826,121,90,911,-767,43,53,37,28507,-16163,-12576,916,277
4958,7843,7853,121,83,894,-1215,50,56,44,28466,-16121,-12504,917,278
4958,7865,7875,122,88,902,-1263,50,46,32,28400,-16127,-12636,917,279
4958,7888,7898,123,86,897,-831,48,52,30,28400,-16283,-12804,919,280
4958,7911,7920,120,94,896,-943,44,50,29,28567,-16055,-12684,918,281
4958,7933,7943,119,87,904,-975,50,52,34,28328,-16217,-12540,921,282
4958,7956,7966,128,92,903,-783,50,50,34,28501,-16157,-12552,922,283
4958,7979,7988,128,89,898,-1087,51,51,36,28513,-16157,-12648,921,284
4958,8001,8011,120,93,898,-1071,49,51,33,28466,-16115,-12642,921,285
4958,8024,8034,117,89,898,-1087,50,49,34,28555,-16313,-12606,916,286
4958,8047,8056,125,91,902,-863,56,49,37,28621,-16247,-12708,921,287
4958,8069,8079,128,86,896,-1087,50,48,36,28460,-16253,-12570,922,288
4958,8092,8102,117,93,900,-911,50,50,30,28364,-16295,-12666,925,289
4958,8114,8124,128,91,904,-1199,50,49,34,28322,-16163,-12690,921,290
4958,8137,8147,121,87,900,-1167,52,54,41,28376,-16157,-12690,921,291
4958,8163,8173,119,82,901,-975,49,53,38,28424,-16259,-12702,919,292
4958,8186,8196,121,86,904,-863,49,46,37,28418,-16199,-12744,918,293
4958,8209,8218,122,88,903,-1039,49,46,36,28394,-16211,-12720,915,294
4958,8231,8241,119,90,900,-1295,51,49,35,28358,-16301,-12606,921,295
4958,8254,8264,128,93,899,-703,46,51,34,28448,-16175,-12804,917,296
4958,8277,8287,117,85,898,-863,50,54,38,28388,-16217,-12672,920,297
4958,8299,8309,125,90,902,-943,57,50,38,28412,-16301,-12402,917,298
4958,8322,8332,127,80,893,-1215,50,53,38,28466,-16115,-12295,921,299
4958,8345,8354,123,84,899,-1183,48,46,37,28549,-16385,-12546,922,300
4958,8367,8377,121,95,909,-895,50,51,35,28406,-16193,-12630,920,301
4958,8390,8400,121,85,897,-783,49,51,35,28519,-16241,-12337,922,302
4958,8413,8422,129,92,906,-927,53,46,37,28478,-16301,-12606,923,303
4958,8435,8445,123,90,904,-495,44,49,34,28579,-16127,-12582,919,304
4958,8458,8468,119,92,895,-591,51,54,43,28460,-16337,-12923,920,305
4958,8484,8494,123,93,906,-1279,50,53,38,28442,-16061,-12325,922,306
4958,8507,8516,117,90,900,-1055,48,51,40,28723,-16139,-12426,923,307
4958,8529,8539,131,87,891,-1039,50,53,35,28645,-16241,-12546,920,308
4958,8552,8562,122,89,898,-703,48,53,33,28561,-16223,-12414,920,309
4958,8574,8584,119,82,904,-767,56,49,30,28561,-16307,-12408,922,310
4958,8607,8617,132,90,911,-959,48,52,33,28507,-16349,-12361,920,311
4958,8630,8640,128,95,902,-1071,53,49,35,28490,-16361,-12115,919,312
4958,8652,8662,123,92,896,-1359,56,51,38,28472,-16241,-12420,919,313
4958,8675,8685,121,97,902,-1311,50,45,30,28328,-16331,-12456,923,314
4958,8698,8707,115,100,891,-1375,48,54,34,28442,-16325,-12217,919,315
4958,8720,8730,123,89,901,-1151,56,57,30,28561,-16265,-12097,916,316
4958,8743,8753,127,86,909,-655,49,46,33,28507,-16187,-12223,922,317
4958,8765,8775,131,79,906,-687,51,48,29,28484,-16145,-12343,921,318
4958,8788,8798,122,94,903,-1231,48,56,41,28555,-16091,-12540,922,319
4958,8814,8824,123,93,896,-1327,51,53,40,28609,-16133,-12402,920,320
4958,8837,8846,117,97,898,-975,51,48,36,28561,-16193,-12474,921,321
4958,8859,8869,120,87,908,-303,48,52,34,28460,-16211,-12378,919,322
4958,8882,8892,124,94,896,-1151,51,53,36,28591,-16259,-12534,923,323
4958,8904,8914,126,89,911,-495,50,50,32,28615,-16361,-12612,921,324
4958,8927,8937,120,84,902,-575,50,44,33,28675,-16229,-12295,919,325
4958,8950,8959,117,89,902,-879,50,53,33,28663,-16205,-12504,917,326
4958,8972,8982,126,87,894,-767,49,53,36,28466,-16367,-12283,922,327
4958,8995,9005,118,87,891,-623,43,51,37,28549,-16223,-12163,921,328
4958,9017,9027,133,92,896,-863,49,50,36,28627,-16265,-12390,917,329
4958,9040,9050,118,87,900,-623,48,49,33,28513,-16091,-12420,920,330
4958,9063,9072,123,88,895,-927,50,51,38,28675,-16026,-12552,920,331
4958,9085,9095,127,89,898,-687,49,54,38,28555,-15984,-12331,919,332
4958,9108,9118,119,92,908,-511,49,50,36,28537,-15960,-12229,921,333
4958,9134,9144,119,89,898,-1311,48,51,35,28555,-16073,-12367,921,334
4958,9156,9166,121,93,902,-1103,53,52,40,28436,-16097,-12474,916,335
4958,9179,9189,119,94,909,-1247,46,46,38,28478,-16097,-12642,914,336
4958,9202,9212,120,95,899,-975,51,51,38,28388,-16540,-12804,924,337
4958,9224,9234,124,88,898,-1103,44,46,38,28328,-16415,-14043,921,338
4958,9247,9257,127,90,906,-1199,50,45,34,28268,-16277,-12702,923,339
4958,9270,9279,122,92,910,-1183,49,50,37,28232,-16439,-12528,921,340
4958,9292,9302,120,91,902,-1103,49,50,42,28549,-16181,-12624,921,341
4958,9315,9325,117,90,901,-1087,49,56,37,28400,-16109,-12438,920,342
4958,9337,9347,121,87,903,-751,48,48,33,28573,-16301,-12660,918,343
4958,9360,9370,127,95,906,-751,53,50,34,28418,-16277,-12492,920,344
4958,9383,9393,127,101,899,-1215,49,52,33,28507,-16253,-12271,918,345
4958,9405,9415,121,85,902,-255,51,49,37,28430,-16295,-12157,921,346
4958,9432,9441,124,95,901,-959,52,46,37,28274,-16157,-12217,919,347
4958,9454,9464,121,93,902,-623,53,53,34,28418,-16145,-12378,919,348
4958,9477,9487,132,88,899,-1327,52,49,28,28436,-16265,-12396,919,349
4958,9499,9509,118,84,899,-1135,52,50,35,28376,-16355,-12253,920,350
4958,9522,9532,114,99,902,-863,50,51,37,28555,-16199,-12181,919,351
4958,9545,9554,124,90,900,-1423,45,50,40,28597,-16103,-12414,918,352
4958,9567,9577,124,89,897,-1071,48,56,38,28621,-16097,-12205,917,353
4958,9590,9600,113,89,905,-879,50,52,36,28561,-16157,-12378,919,354
4958,9612,9622,131,88,899,-1151,43,48,35,28621,-16247,-12205,920,355
4958,9635,9645,121,89,897,-1231,52,48,38,28424,-16217,-12247,922,356
4958,9658,9667,126,86,900,-1231,48,49,37,28633,-16283,-12432,921,357
4958,9680,9690,123,93,900,-799,51,52,33,28639,-16343,-12534,919,358
4958,9703,9713,128,88,899,-639,49,49,37,28513,-16169,-12444,924,359
4958,9726,9736,129,97,893,-879,51,54,38,28490,-16157,-12355,922,360
4958,9752,9762,123,84,902,-751,50,49,38,28513,-16337,-12450,921,361
4958,9774,9784,130,92,895,-767,50,46,34,28687,-16439,-12271,922,362
4958,9805,9814,121,91,898,-975,48,45,36,28478,-16367,-12289,916,363
4958,9827,9837,126,89,914,-1103,52,51,33,28669,-16457,-12181,920,364
4958,9850,9859,115,82,889,-1007,48,50,33,28651,-16301,-12235,920,365
4958,9872,9882,132,91,900,-927,52,53,36,28561,-16289,-12211,921,366
4958,9895,9905,134,93,900,-943,57,50,36,28591,-16199,-12612,923,367
4958,9917,9927,122,94,906,-799,50,58,38,28573,-16361,-12355,918,368
4958,9940,9950,118,91,902,-783,48,54,32,28615,-16451,-12337,916,369
4958,9962,9972,113,87,904,-623,48,44,36,28501,-16169,-12223,921,370
4958,9985,9995,125,80,898,-847,52,51,38,28472,-16325,-12384,917,371
4958,10008,10017,121,93,897,-735,54,54,33,28561,-16498,-12486,919,372
4958,10030,10040,116,96,890,-927,48,53,35,28490,-16403,-12277,919,373
4958,10053,10063,123,100,900,-607,53,48,36,28495,-16457,-12115,919,374
4958,10079,10089,128,86,896,-639,49,53,34,28484,-16223,-12007,921,375
4958,10101,10111,121,91,900,-927,50,53,36,28454,-16205,-12091,918,376
4958,10124,10134,116,91,902,-479,53,49,38,28412,-16271,-12073,919,377
4958,10147,10156,114,95,908,-1119,52,51,41,28334,-16115,-12157,924,378
4958,10169,10179,123,88,896,-911,46,56,35,28537,-16229,-12115,922,379
4958,10192,10202,128,86,898,-655,51,51,34,28424,-16121,-11846,921,380
4958,10214,10224,123,98,899,-1119,48,51,37,28543,-16199,-12229,921,381
4958,10237,10247,120,82,889,-847,53,48,38,28543,-16355,-11918,924,382
4958,10260,10269,122,91,900,-911,52,53,38,28615,-16319,-12055,920,383
4958,10282,10292,126,90,902,-831,56,50,29,28490,-16085,-12055,920,384
4958,10305,10314,122,93,898,-831,50,45,36,28609,-16217,-12307,919,385
4958,10327,10337,121,84,905,-1359,50,53,38,28543,-16205,-12085,920,386
4958,10350,10360,117,89,897,-303,52,48,35,28765,-16175,-12271,918,387
4958,10372,10382,121,89,892,-1231,52,50,35,28543,-16307,-12516,921,388
4958,10398,10408,124,87,895,-1103,52,49,33,28495,-16175,-12217,922,389
4958,10421,10431,124,87,901,-767,48,49,34,28591,-16349,-12019,919,390
4958,10444,10453,120,96,909,-767,49,51,34,28525,-16385,-12426,920,391
4958,10466,10476,119,87,900,-959,48,50,34,28424,-16379,-12283,918,392
4958,10510,10520,126,91,901,-975,48,51,36,28442,-16379,-12648,917,393
4958,10532,10542,126,95,899,-927,52,51,34,28454,-16283,-12468,920,394
4958,10555,10565,125,89,902,-847,53,53,36,28388,-16331,-12283,919,395
4958,10578,10587,123,91,904,-975,56,52,41,28531,-16121,-12367,920,396
4958,10600,10610,123,98,891,-1119,50,49,30,28466,-16235,-12283,919,397
4958,10623,10633,113,87,901,-1103,52,51,35,28478,-16229,-12307,918,398
4958,10645,10655,122,89,902,-831,51,57,38,28567,-16313,-12265,919,399
4958,10668,10678,117,89,903,-511,50,52,36,28573,-16331,-12199,922,400
4958,10690,10700,123,92,894,-1231,49,49,38,28507,-16301,-12007,917,401
4958,10713,10723,126,99,898,-959,48,52,33,28442,-16175,-12073,925,402
4958,10739,10749,118,90,896,-575,52,52,32,28388,-16259,-12402,919,403
4958,10762,10771,127,88,906,-911,54,49,30,28256,-16433,-12181,919,404
4958,10784,10794,126,89,896,-1167,51,49,33,28484,-16439,-12480,920,405
4958,10807,10817,123,97,903,-687,49,49,32,28507,-16271,-12019,920,406
4958,10829,10839,123,85,899,-991,45,46,37,28298,-16307,-12277,919,407
4958,10852,10862,128,89,902,-1087,51,51,35,28490,-15984,-12325,920,408
4958,10874,10884,128,91,891,-959,50,51,36,28394,-16127,-12492,922,409
4958,10897,10907,123,89,901,-959,58,50,34,28346,-16115,-12474,921,410
4958,10919,10929,126,82,898,-1071,48,53,42,28340,-16133,-12516,919,411
4958,10942,10952,123,89,898,-767,49,52,37,28370,-15966,-12229,919,412
4958,10965,10974,110,90,901,-703,48,52,34,28501,-16343,-12307,916,413
4958,10987,10997,126,96,902,-911,51,50,38,28346,-16127,-12229,922,414
4958,11010,11019,121,87,904,-591,52,56,30,28340,-16295,-12235,921,415
4958,11032,11042,121,95,906,-1151,49,44,44,28178,-16151,-12253,920,416
4958,11058,11068,126,97,902,-671,46,49,33,28484,-16223,-12187,919,417
4958,11081,11091,123,98,895,-911,51,51,35,28412,-16271,-12313,917,418
4958,11103,11113,129,92,903,-1407,49,52,36,28064,-16211,-12283,919,419
4958,11126,11136,119,89,897,-751,48,56,35,28316,-16253,-12181,918,420
4958,11148,11158,123,88,904,-607,52,52,35,28412,-16343,-12163,922,421
4958,11171,11181,114,91,901,-1215,48,57,40,28424,-16295,-12367,920,422
4958,11193,11203,122,90,909,-943,48,50,37,28232,-16151,-12528,920,423
4958,11216,11226,119,91,898,-767,48,45,33,28364,-16349,-12390,920,424
4958,11239,11249,128,98,902,-703,48,53,34,28376,-16289,-12331,919,425
4958,11261,11271,123,93,911,-543,57,52,35,28262,-16457,-12390,919,426
4958,11284,11294,119,87,902,-991,46,53,33,27993,-16337,-12211,918,427
4958,11306,11316,124,89,896,-751,49,50,33,28172,-16325,-12492,921,428
4958,11329,11339,126,84,900,-703,52,49,30,28406,-16349,-12480,921,429
4958,11355,11365,125,93,900,-559,49,52,41,28208,-16463,-12546,922,430
4958,11378,11388,123,87,895,-1215,48,50,36,28226,-16295,-12528,920,431
4958,11400,11410,123,90,900,-927,52,50,33,28364,-16361,-12408,923,432
4958,11423,11433,123,90,902,-943,52,52,33,28196,-16277,-12127,916,433
4958,11445,11455,122,93,903,-847,54,48,33,28555,-16097,-12516,924,434
4958,11468,11478,120,87,900,-335,50,52,36,28400,-16253,-12367,919,435
4958,11490,11500,115,93,890,-527,50,52,35,28388,-16055,-12253,919,436
4958,11513,11523,123,94,898,-975,52,52,41,28286,-16223,-12474,918,437
4958,11536,11545,119,91,895,-1343,52,46,30,28460,-16199,-12283,922,438
4958,11558,11568,119,93,902,-751,48,52,35,28256,-16427,-12486,918,439
4958,11581,11591,126,92,906,-543,48,48,30,28549,-16283,-12361,919,440
4958,11603,11613,119,87,894,-1039,52,50,33,28322,-16319,-12091,918,441
4958,11626,11636,118,82,904,-1295,48,48,35,28448,-16241,-12127,920,442
4958,11648,11658,122,97,899,-1087,52,51,30,28448,-16277,-12325,923,443
4958,11674,11684,123,91,904,-767,50,56,29,28382,-16187,-12301,918,444
4958,11697,11707,128,92,902,-975,50,50,34,28513,-16474,-12205,916,445
4958,11720,11729,121,89,900,-1007,48,54,37,28310,-16403,-12271,920,446
4958,11742,11752,125,91,891,-991,53,56,40,28412,-16307,-12510,920,447
4958,11765,11775,123,88,904,-479,50,49,35,28513,-16187,-12564,922,448
4958,11787,11797,123,89,900,-815,50,46,37,28436,-16373,-12516,916,449
4958,11810,11820,119,94,909,-1359,49,53,34,28418,-16175,-12420,922,450
4958,11833,11843,110,94,907,-1055,51,53,36,28537,-16325,-12408,918,451
4958,11855,11865,126,87,896,-447,52,46,29,28460,-16115,-12552,923,452
4958,11878,11888,123,93,883,-1151,51,54,32,28376,-16259,-12402,921,453
4958,11900,11910,127,94,898,-991,44,51,30,28543,-16259,-12624,921,454
4958,11923,11933,122,89,902,-1231,50,50,32,28519,-16307,-12474,919,455
4958,11946,11955,123,87,901,-911,50,46,35,28454,-16498,-12504,921,456
4958,11968,11978,123,90,893,-1199,48,50,40,28436,-16439,-12504,917,457
4958,12003,12013,132,95,900,-815,45,48,33,28394,-16133,-12510,920,458
4958,12026,12035,130,94,904,-687,48,46,33,28406,-16283,-12313,915,459
4958,12049,12058,121,92,896,-943,53,49,38,28202,-16247,-12355,920,460
4958,12071,12081,119,87,904,-431,52,50,38,28304,-16199,-12498,917,461
4958,12094,12104,131,87,899,-1551,46,53,34,28268,-16103,-12229,921,462
4958,12117,12127,125,87,897,-991,51,56,37,28382,-16157,-12426,919,463
4958,12140,12150,128,84,896,-1023,49,52,34,28310,-16253,-12492,919,464
4958,12163,12173,121,89,896,-511,52,51,35,28430,-16241,-12546,919,465
4958,12186,12196,119,86,891,-687,46,49,41,28352,-16307,-12660,918,466
4958,12209,12219,128,91,903,-703,56,54,36,28214,-16301,-12462,920,467
4958,12232,12242,119,84,901,-655,51,52,36,28394,-16349,-12570,920,468
4958,12255,12264,116,87,904,-847,51,52,33,28525,-16397,-12504,918,469
4958,12278,12287,114,89,897,-911,54,50,35,28316,-16373,-12486,921,470
4958,12300,12310,118,85,896,-1071,49,54,38,28328,-16211,-12552,924,471
4958,12329,12339,128,93,900,-751,50,54,33,28370,-16163,-12845,917,472
4958,12351,12361,126,97,903,-383,48,56,41,28406,-16253,-12642,923,473
4958,12374,12384,120,85,904,-703,46,51,40,28340,-16283,-12792,922,474
4958,12397,12407,119,89,902,-1311,50,50,33,28220,-16193,-12792,919,475
4958,12420,12430,122,88,900,-1231,53,54,33,28304,-16480,-12510,919,476
4958,12443,12453,118,93,902,-623,48,52,37,28406,-16385,-12684,918,477
4958,12466,12476,130,89,896,-815,46,50,37,28460,-16385,-12516,923,478
4958,12489,12499,120,87,902,-1519,48,50,30,28382,-16373,-12510,922,479
4958,12512,12521,121,88,909,-1103,52,56,33,28525,-16241,-12474,919,480
4958,12535,12544,116,86,889,-783,52,53,35,28501,-16205,-12390,917,481
4958,12557,12567,130,87,904,-879,50,54,33,28418,-16289,-12414,919,482
4958,12580,12590,128,94,900,-1167,53,57,36,28370,-16295,-12594,919,483
4958,12611,12621,110,89,899,-975,50,52,32,28304,-16109,-12331,920,484
4958,12634,12643,122,89,896,-1151,49,52,30,28501,-16026,-12259,920,485
4958,12662,12672,116,97,905,-687,54,50,40,28472,-16247,-12277,919,486
4958,12685,12694,126,94,900,-575,53,50,37,28430,-16151,-12319,924,487
4958,12708,12718,111,85,900,-1199,52,54,34,28436,-16026,-12654,917,488
4958,12731,12740,128,86,905,-1199,51,51,35,28519,-16002,-12672,917,489
4958,12753,12763,123,86,906,-1327,48,46,36,28436,-16091,-12582,919,490
4958,12776,12786,126,89,906,-863,46,48,34,28322,-15924,-12522,923,491
4958,12799,12809,122,88,891,-351,52,48,35,28537,-15996,-12133,917,492
4958,12822,12832,116,90,904,-639,53,53,30,28621,-16049,-12402,920,493
4958,12845,12855,115,82,895,-847,49,52,27,28591,-16121,-12432,918,494
4958,12868,12878,120,94,898,-735,51,49,43,28531,-16181,-12426,923,495
4958,12891,12901,115,89,898,-911,48,52,40,28418,-16151,-12067,921,496
4958,12914,12924,133,93,898,-1055,44,52,34,28424,-16049,-12552,922,497
4958,12937,12946,132,89,898,-959,48,50,34,28495,-16002,-12301,919,498
4958,12960,12969,117,93,896,-895,46,50,34,28232,-15990,-12283,921,499
4958,12988,12998,111,90,893,-879,49,49,34,28484,-15984,-12343,921,500
4958,13011,13020,128,87,900,-1407,52,52,40,28292,-15972,-12564,922,501
4958,13033,13043,128,89,898,-831,51,54,36,28454,-16055,-12534,919,502
4958,13056,13066,127,91,896,-607,46,53,33,28460,-15942,-12714,924,503
4958,13079,13089,119,89,903,-719,53,54,41,28328,-16073,-12630,918,504
4958,13102,13112,122,86,900,-735,51,52,33,28364,-16109,-12822,921,505
4958,13125,13135,121,80,895,-463,52,46,34,28519,-16067,-12426,920,506
4958,13148,13158,120,91,893,-607,49,50,36,28346,-16109,-12594,921,507
4958,13171,13180,121,94,904,-1199,49,57,36,28382,-16271,-12426,919,508
4958,13194,13203,130,91,896,-223,56,52,40,28376,-16211,-12271,917,509
4958,13216,13226,125,89,902,-831,48,50,34,28472,-16091,-12672,922,510
4958,13239,13249,121,91,900,-639,46,48,35,28394,-16193,-12714,921,511
4958,13262,13272,129,87,904,-815,50,52,34,28448,-16061,-12594,922,512
4958,13285,13295,125,91,895,-1055,53,46,43,28310,-16175,-12720,920,513
4958,13307,13316,121,89,902,-783,50,53,36,28490,-16091,-12833,925,514
4958,13329,13339,117,89,898,-863,49,49,33,28370,-16301,-12390,919,515
4958,13352,13362,128,86,906,-591,52,51,33,28262,-16169,-12702,922,516
4958,13375,13385,120,87,902,-751,56,50,38,28388,-16379,-12738,919,517
4958,13398,13408,128,91,902,-879,46,49,36,28364,-16343,-12582,919,518
4958,13421,13431,123,95,906,-511,50,54,30,28442,-16313,-12804,920,519
4958,13444,13454,124,83,898,-767,49,61,43,28124,-16385,-12786,921,520
4958,13467,13476,123,85,898,-1055,51,50,42,28472,-16277,-12887,921,521
4958,13489,13499,115,98,909,-479,51,46,34,28334,-16193,-12343,920,522
4958,13512,13522,128,95,896,-975,51,56,32,28322,-16109,-12666,919,523
4958,13535,13545,123,89,893,-783,50,50,33,28154,-16109,-12516,922,524
4958,13558,13568,124,97,904,-959,48,45,36,28454,-16002,-12774,917,525
4958,13581,13591,118,89,885,-751,49,45,37,28304,-16097,-12588,918,526
4958,13609,13619,119,86,898,-943,53,54,34,28322,-16271,-12504,921,527
4958,13632,13642,122,87,904,-895,49,54,37,28328,-16241,-12792,922,528
4958,13655,13665,117,83,899,-639,49,51,35,28286,-16259,-12750,921,529
4958,13678,13687,119,87,889,-1135,53,48,35,28525,-16193,-12845,919,530
4958,13700,13710,121,96,897,-815,54,48,34,28376,-16031,-12534,920,531
4958,13723,13733,122,89,899,-959,44,52,32,28358,-15906,-12750,919,532
4958,13746,13756,123,95,904,-847,53,46,36,28238,-16145,-12576,921,533
4958,13769,13779,122,91,899,-959,49,53,33,28352,-15942,-12636,916,534
4958,13792,13802,132,92,901,-863,53,56,37,28310,-16091,-12893,921,535
4958,13815,13824,126,84,899,-1231,52,49,42,28382,-16175,-12648,923,536
4958,13837,13847,121,90,902,-863,49,46,29,28292,-15984,-12498,921,537
4958,13860,13870,120,97,901,-719,51,53,37,28316,-16199,-12947,923,538
4958,13893,13903,126,94,904,-1103,51,50,30,28274,-16229,-12911,920,539
4958,13916,13926,128,89,907,-991,51,53,41,27993,-16163,-12546,919,540
4958,13944,13954,123,94,910,-863,49,53,42,28454,-16181,-12432,921,541
4958,13967,13977,114,80,905,-751,46,48,33,28316,-16169,-12929,921,542
4958,13990,14000,123,84,908,-1295,53,51,42,28316,-16026,-12684,920,543
4958,14013,14022,117,87,906,-719,50,51,30,28328,-16295,-11115,921,544
4958,14035,14045,119,92,897,-911,52,50,37,28262,-16199,-12576,921,545
4958,14058,14068,113,89,898,-1007,48,49,37,28412,-16283,-12857,922,546
4958,14081,14091,121,89,889,-799,50,49,32,28346,-16109,-12546,920,547
4958,14104,14114,119,89,893,-783,49,46,34,28418,-15966,-12343,921,548
4958,14127,14137,123,97,906,-1103,52,48,33,28513,-16187,-12672,921,549
4958,14150,14160,120,87,906,-479,52,56,40,28460,-15978,-12762,920,550
4958,14173,14182,116,91,901,-751,54,50,29,28328,-16049,-12540,922,551
4958,14195,14205,121,93,906,-1135,48,53,34,28484,-16026,-12450,920,552
4958,14218,14228,127,95,905,-799,50,56,29,28370,-15972,-12762,916,553
4958,14241,14251,128,88,897,-1151,46,49,30,28364,-15942,-12510,920,554
4958,14269,14279,123,84,896,-911,48,46,37,28172,-16187,-12265,920,555
4958,14292,14302,128,87,898,-463,51,58,41,28460,-16103,-12450,923,556
4958,14315,14325,124,91,894,-863,50,54,28,28418,-15954,-12343,920,557
4958,14338,14348,126,84,894,-1103,50,51,36,28460,-16085,-12325,921,558
4958,14361,14371,121,91,891,-959,52,54,37,28412,-16133,-12235,918,559
4958,14384,14393,128,91,908,-1135,52,57,36,28334,-16205,-12390,919,560
4958,14406,14416,123,91,900,-575,54,49,40,28370,-16103,-12373,918,561
4958,14429,14439,119,95,902,-735,50,54,40,28460,-16283,-12528,913,562
4958,14452,14462,128,97,898,-1503,59,50,36,28472,-16325,-12486,920,563
4958,14475,14485,129,86,900,-543,49,49,36,28364,-16307,-12528,920,564
4958,14498,14508,125,88,894,-879,57,52,33,28304,-16361,-12798,919,565
4958,14521,14531,121,92,900,-879,53,52,32,28388,-16157,-12570,921,566
4958,14544,14554,132,87,907,-687,56,48,35,28424,-16217,-12432,919,567
4958,14567,14576,128,82,898,-527,45,45,34,28561,-16307,-12684,923,568
4958,14595,14605,121,90,899,-1215,49,51,33,28376,-16355,-12756,924,569
4958,14618,14627,116,90,909,-1007,48,48,33,28549,-16187,-12923,915,570
4958,14640,14650,136,95,897,-591,56,49,38,28382,-16253,-12774,920,571
4958,14663,14673,123,95,900,-863,54,56,40,28268,-16385,-13013,921,572
4958,14686,14696,128,84,904,-879,51,48,35,28436,-16307,-12833,925,573
4958,14709,14719,115,87,893,-751,48,51,38,28466,-16079,-12672,922,574
4958,14732,14742,122,89,899,-1167,53,54,34,28495,-16133,-12582,921,575
4958,14755,14765,124,96,906,-607,48,53,36,28376,-15834,-12720,916,576
4958,14778,14787,124,91,904,-1359,51,54,34,28268,-16079,-12444,919,577
4958,14801,14810,124,93,898,-1007,53,54,33,28424,-16043,-12396,919,578
4958,14823,14833,117,91,900,-559,53,50,40,28136,-16079,-12444,922,579
4958,14846,14856,119,85,909,-975,50,48,32,28573,-15966,-12337,919,580
4958,14869,14879,128,90,904,-927,51,49,41,28316,-16026,-12319,920,581
4958,14892,14902,125,89,902,-191,51,48,28,28310,-16073,-12295,920,582
4958,14920,14930,121,87,904,-687,49,54,40,28346,-16014,-12426,917,583
4958,14943,14953,126,90,902,-911,48,57,40,28400,-16055,-12229,920,584
4958,14966,14976,120,84,908,-623,50,49,33,28286,-16259,-12426,918,585
4958,14989,14998,126,87,903,-1055,50,61,33,28412,-16337,-12295,918,586
4958,15011,15021,126,88,903,-879,45,54,36,28352,-16355,-12732,920,587
4958,15034,15044,122,94,912,-623,48,54,41,28418,-16355,-12211,920,588
4958,15057,15067,117,93,900,-831,54,52,38,28478,-16247,-12678,920,589
4958,15080,15090,115,85,898,-1151,48,52,35,28484,-16331,-12827,921,590
4958,15103,15113,121,90,894,-751,56,53,41,28376,-16355,-12361,920,591
4958,15126,15136,119,89,898,-911,51,53,36,28543,-16397,-12690,920,592
4958,15149,15158,121,88,913,-1023,53,54,34,28430,-16187,-12630,919,593
4958,15171,15181,125,91,907,-703,50,50,40,28454,-16283,-12690,922,594
4958,15194,15204,122,91,902,-559,49,53,36,28310,-16205,-12744,919,595
4958,15217,15227,119,91,900,-655,57,51,38,28220,-16409,-12899,918,596
4958,15245,15255,128,94,903,-543,48,49,34,28454,-16349,-12618,916,597
4958,15268,15278,123,91,891,-1135,51,50,34,28519,-16337,-12504,926,598
4958,15291,15301,120,87,896,-591,51,52,41,28460,-16241,-12738,922,599
4958,15314,15324,128,90,900,-847,53,53,34,28466,-16235,-12660,919,600
4958,15337,15347,120,91,904,-1119,46,52,35,28454,-16175,-12618,920,601
4958,15360,15369,118,86,896,-495,50,54,32,28579,-16265,-12444,918,602
4958,15382,15392,129,94,903,-783,49,49,41,28585,-16355,-12456,918,603
4958,15405,15415,125,91,902,-975,54,53,38,28525,-16217,-12576,919,604
4958,15428,15438,121,91,900,-1183,49,54,35,28466,-16367,-12666,919,605
4958,15458,15468,126,84,898,-1247,49,50,35,28603,-16271,-12720,919,606
4958,15481,15491,127,91,901,-447,53,52,34,28519,-16367,-12780,920,607
4958,15504,15514,129,91,896,-991,53,53,36,28454,-16295,-12887,921,608
4958,15527,15537,117,92,893,-671,50,51,38,28400,-16301,-12654,920,609
4958,15555,15565,119,94,901,-1007,50,53,32,28525,-16181,-12845,920,610
4958,15578,15587,122,88,897,-575,50,50,30,28633,-16217,-12654,920,611
4958,15622,15632,128,90,894,-719,48,46,38,28549,-16061,-12325,921,612
4958,15645,15654,121,89,901,-703,52,50,36,28364,-16145,-12301,921,613
4958,15667,15677,125,91,896,-1151,54,56,33,28340,-16211,-12456,921,614
4958,15690,15700,116,84,897,-767,50,52,35,28340,-16067,-12630,918,615
4958,15713,15723,128,93,904,-959,51,52,34,28322,-16085,-12432,923,616
4958,15736,15746,119,93,906,-735,48,51,30,28460,-16247,-12396,920,617
4958,15759,15769,126,91,909,-511,51,52,37,28238,-16127,-12630,921,618
4958,15782,15791,119,96,898,-1071,52,49,34,28298,-16307,-12283,921,619
4958,15804,15814,122,91,900,-1183,49,57,40,28334,-16277,-12402,920,620
4958,15827,15837,131,92,905,-751,49,50,34,28382,-16319,-12672,921,621
4958,15850,15860,121,80,905,-1471,51,49,36,28406,-16289,-12408,920,622
4958,15873,15883,122,83,900,-1023,51,53,38,28501,-16235,-12325,926,623
4958,15901,15911,122,91,905,-1167,49,52,37,28460,-16193,-12923,922,624
4958,15923,15933,121,94,904,-831,51,50,36,28490,-16181,-12414,920,625
4958,15946,15956,124,95,908,-703,50,53,33,28549,-16073,-12396,917,626
4958,15969,15979,128,87,903,-479,46,49,36,28472,-16283,-12558,915,627
4958,15992,16002,119,101,898,-1167,52,52,35,28603,-16157,-12361,919,628
4958,16015,16024,115,92,906,-623,56,54,34,28448,-16103,-12468,923,629
4958,16037,16047,121,83,909,-943,51,50,33,28388,-16103,-12576,922,630
4958,16060,16070,119,87,896,-1087,45,52,35,28382,-16199,-12115,926,631
4958,16083,16093,126,84,891,-1263,49,46,35,28585,-16211,-12762,921,632
4958,16106,16115,121,92,899,-735,56,53,36,28561,-16055,-12696,918,633
4958,16128,16138,121,83,920,-335,58,51,37,28603,-16151,-12373,921,634
4958,16151,16161,124,90,910,-767,56,52,36,28484,-16199,-12498,916,635
4958,16174,16184,116,91,905,-1183,56,53,41,28675,-16283,-12528,920,636
4958,16197,16207,117,90,906,-1711,48,53,38,28573,-16349,-12857,921,637
4958,16225,16235,128,91,898,-735,56,50,36,28627,-16211,-12133,919,638
4958,16247,16257,122,93,903,-847,58,52,36,28490,-16295,-12744,923,639
4958,16270,16280,120,84,900,-943,53,50,36,28591,-16433,-12307,918,640
4958,16293,16303,116,95,909,-815,58,51,34,28412,-16235,-12474,920,641
4958,16316,16326,122,91,909,-799,50,51,34,28615,-15936,-12468,920,642
4958,16339,16348,126,100,898,-943,44,53,34,28454,-16145,-12546,916,643
4958,16361,16371,115,89,903,-1071,46,50,33,28567,-16139,-12456,920,644
4958,16384,16394,119,89,900,-991,57,49,37,28490,-16139,-12492,918,645
4958,16407,16417,123,79,898,-1055,49,48,37,28466,-16331,-12133,919,646
4958,16430,16440,123,94,906,-655,49,46,30,28346,-16313,-12181,917,647
4958,16453,16462,118,93,901,-1087,52,51,32,28454,-16145,-12390,923,648
4958,16475,16485,123,87,901,-1375,53,50,37,28460,-16319,-12295,921,649
4958,16498,16508,119,91,891,-655,53,57,33,28442,-16265,-12373,919,650
4958,16521,16531,121,92,894,-1199,56,53,36,28358,-16397,-12606,925,651
4958,16549,16559,132,90,902,-591,49,46,37,28573,-16415,-12462,920,652
4958,16572,16581,123,94,891,-415,49,49,37,28615,-16319,-12378,921,653
4958,16594,16604,134,86,912,-847,50,52,34,28507,-16091,-12217,917,654
4958,16617,16627,123,91,903,-623,51,51,36,28478,-16151,-12235,920,655
4958,16640,16650,119,89,907,-1167,54,51,33,28454,-16313,-12367,921,656
4958,16663,16672,124,89,904,-687,52,46,35,28472,-16379,-12480,923,657
4958,16685,16695,123,88,895,-703,46,46,37,28519,-16259,-12169,924,658
4958,16708,16718,121,91,897,-1007,52,44,27,28627,-16241,-12534,919,659
4958,16731,16741,124,91,902,-1231,46,49,33,28412,-16289,-12845,920,660
4958,16754,16764,121,96,911,-735,48,48,33,28424,-16211,-12319,923,661
4958,16777,16786,126,87,898,-879,49,44,33,28466,-16409,-12588,920,662
4958,16799,16809,130,89,894,-767,50,52,35,28448,-16217,-12384,923,663
4958,16822,16832,120,91,898,-1247,58,48,28,28430,-16301,-12301,919,664
4958,16845,16855,127,86,903,-895,51,48,34,28478,-16337,-12402,921,665
4958,16873,16883,123,89,907,-783,50,48,36,28495,-16229,-12438,920,666
4958,16896,16906,122,89,895,-735,53,44,29,28472,-16211,-12558,924,667
4958,16919,16928,120,91,896,-335,46,50,35,28537,-16367,-12684,924,668
4958,16941,16951,121,92,897,-543,50,44,33,28627,-16229,-12313,918,669
4958,16964,16974,122,87,907,-879,50,48,34,28406,-16337,-12438,921,670
4958,16987,16997,130,87,900,-783,52,52,34,28555,-16397,-12432,920,671
4958,17010,17020,123,89,900,-863,50,48,37,28561,-16073,-12355,920,672
4958,17033,17042,122,97,904,-687,52,50,33,28406,-16103,-12319,920,673
4958,17055,17065,123,91,897,-1247,48,48,30,28537,-16133,-12133,918,674
4958,17078,17088,119,88,898,-991,50,48,30,28304,-16199,-12373,921,675
4958,17101,17111,123,88,896,-1215,52,57,33,28340,-16175,-12121,918,676
4958,17124,17134,121,81,901,-543,51,50,32,28537,-16103,-12229,919,677
4958,17147,17157,126,91,898,-1327,51,50,33,28454,-16181,-12235,918,678
4958,17170,17179,127,89,904,-639,50,51,36,28537,-16289,-12349,923,679
4958,17198,17208,117,97,903,-783,53,49,35,28286,-16097,-12181,923,680
4958,17221,17230,121,95,904,-1103,52,54,30,28490,-16181,-12253,918,681
4958,17243,17253,130,89,900,-623,57,54,36,28370,-16379,-12390,929,682
4958,17266,17276,119,87,899,-1007,48,50,35,28346,-16157,-12199,924,683
4958,17289,17299,127,84,900,-847,49,49,36,28232,-16026,-12223,918,684
4958,17312,17322,123,95,900,-463,52,48,33,28220,-16115,-12504,924,685
4958,17335,17344,127,95,904,-735,48,48,30,28280,-16181,-12175,920,686
4958,17357,17367,122,92,897,-703,52,42,35,28430,-16181,-12295,918,687
4958,17380,17390,124,84,900,-287,53,50,33,28340,-16355,-12498,916,688
4958,17403,17413,121,95,902,-559,50,48,33,28334,-16325,-12235,916,689
4958,17426,17436,116,91,895,-1039,53,52,28,28262,-16265,-12265,918,690
4958,17449,17458,117,95,908,-767,53,48,33,28352,-16289,-12378,924,691
4958,17471,17481,121,89,896,-1231,50,58,38,28250,-16229,-12259,924,692
4958,17500,17509,128,89,903,-927,53,53,43,28196,-16313,-12307,918,693
4958,17522,17532,126,93,897,-991,54,51,40,28190,-16457,-12384,923,694
4958,17545,17555,129,91,903,-591,46,53,36,28280,-16367,-12337,920,695
4958,17568,17578,123,88,906,-479,54,51,36,28340,-16325,-12067,921,696
4958,17591,17601,126,99,900,-639,53,50,38,28166,-16445,-11852,919,697
4958,17613,17623,126,94,905,-815,52,56,35,28250,-16229,-12091,921,698
4958,17636,17646,127,92,902,-815,52,53,37,28244,-16265,-12175,922,699
4958,17659,17669,119,86,902,-431,49,52,32,28388,-16403,-12247,926,700
4958,17682,17692,115,85,892,-1167,52,51,32,28238,-16373,-12426,918,701
4958,17705,17715,117,89,898,-1199,46,57,30,28400,-16403,-12319,918,702
4958,17727,17737,126,95,909,-943,46,51,30,28382,-16403,-12450,921,703
4958,17750,17760,123,90,893,-1039,53,51,38,28525,-16187,-12384,920,704
4958,17773,17783,131,89,906,-911,50,46,35,28322,-16145,-12594,919,705
4958,17796,17806,118,81,898,-687,50,53,35,28352,-16307,-12145,919,706
4958,17824,17834,126,93,897,-751,50,48,36,28250,-15990,-12522,921,707
4958,17847,17857,128,95,906,-959,48,54,34,28322,-16313,-12612,919,708
4958,17870,17879,130,84,898,-559,46,44,35,28292,-16169,-12456,921,709
4958,17892,17902,122,91,900,-591,50,57,37,28442,-16223,-12402,920,710
4958,17915,17925,115,85,891,-927,51,52,30,28352,-16026,-12301,920,711
4958,17938,17948,123,97,898,-1263,50,45,30,28388,-16379,-12444,918,712
4958,17961,17971,125,78,900,-1183,50,51,37,28208,-16187,-12516,922,713
4958,17984,17993,124,93,900,-783,49,45,34,28292,-16271,-12486,917,714
4958,18006,18016,116,100,896,-671,46,51,34,28304,-16199,-12373,921,715
4958,18029,18039,126,92,899,-751,58,50,38,28286,-16319,-12774,920,716
4958,18052,18062,115,92,900,-1167,48,49,36,28250,-16151,-12564,920,717
4958,18075,18085,125,91,899,-1087,49,57,28,28495,-16145,-12319,922,718
4958,18098,18107,124,85,904,-991,49,49,30,28412,-16337,-12169,917,719
4958,18120,18130,124,95,903,-1359,49,56,41,28256,-16223,-12025,919,720
4958,18148,18158,125,91,902,-495,52,51,32,28292,-16271,-12319,921,721
4958,18171,18181,121,83,899,-511,49,50,36,28376,-16085,-12373,918,722
4958,18194,18204,119,92,897,-1135,52,52,38,28202,-16271,-12055,918,723
4958,18217,18227,115,82,906,-495,50,49,43,28274,-16355,-12085,918,724
4958,18239,18249,125,86,900,-1023,51,52,40,28172,-16259,-12007,917,725
4958,18262,18272,119,81,906,-543,49,48,37,28268,-16163,-12390,922,726
4958,18292,18302,117,93,900,-783,46,54,30,28154,-16133,-12199,920,727
4958,18315,18325,126,93,892,-671,49,51,41,28100,-16103,-12552,910,728
4958,18338,18348,129,96,903,-911,51,54,41,28292,-16223,-12438,922,729
4958,18361,18371,126,84,898,-719,54,54,44,28166,-16235,-12492,920,730
4958,18384,18393,117,89,896,-735,56,54,37,28376,-16043,-12229,920,731
4958,18406,18416,129,90,904,-1215,50,57,35,28358,-16205,-12193,917,732
4958,18429,18439,117,89,906,-479,52,52,38,28340,-16127,-12103,921,733
4958,18452,18462,117,88,898,-559,50,48,41,28220,-16181,-12331,921,734
4958,18480,18490,120,87,896,-703,49,56,34,28208,-16235,-12193,921,735
4958,18502,18512,123,92,891,-831,50,50,36,28118,-16457,-12355,918,736
4958,18525,18535,129,86,898,-1135,48,48,38,28364,-16235,-12432,921,737
4958,18548,18558,123,87,900,-1167,49,53,35,28262,-16295,-12546,918,738
4958,18571,18581,122,89,904,-1055,52,42,29,28478,-16421,-12384,919,739
4958,18593,18603,121,89,903,-1135,49,54,37,28346,-16361,-12708,921,740
4958,18616,18626,117,91,902,-831,56,50,33,28400,-16205,-12648,921,741
4958,18639,18649,118,94,900,-1087,53,51,37,28388,-16265,-12869,921,742
4958,18662,18672,125,99,907,-1167,51,50,34,28472,-16391,-12462,920,743
4958,18685,18694,115,88,889,-463,54,57,37,28370,-16337,-12786,920,744
4958,18708,18717,115,88,899,-1263,49,51,36,28406,-16295,-12612,917,745
4958,18730,18740,127,99,900,-559,53,52,35,28232,-16217,-12612,922,746
4958,18753,18763,128,87,901,-767,44,51,29,28268,-16289,-12558,922,747
4958,18776,18786,114,90,898,-463,51,52,36,28172,-16163,-12271,921,748
4958,18804,18814,115,91,906,-815,46,49,33,28370,-16247,-12546,920,749
4958,18827,18836,121,84,905,-975,53,52,42,28286,-16121,-12349,919,750
4958,18849,18859,123,89,903,-1087,48,53,35,28370,-16217,-12432,919,751
4958,18872,18882,125,91,896,-879,50,50,42,28358,-16199,-12259,917,752
4958,18895,18905,132,94,900,-911,46,52,37,28388,-16223,-12211,920,753
4958,18918,18927,123,89,902,-655,50,54,35,28388,-16307,-12289,920,754
4958,18940,18950,126,92,900,-463,49,56,36,28448,-16289,-12289,920,755
4958,18963,18973,115,104,900,-639,52,54,40,28472,-16283,-12384,922,756
4958,18986,18996,122,89,902,-991,53,53,35,28507,-16295,-12289,919,757
4958,19009,19018,123,87,903,-591,54,45,40,28466,-16307,-12253,920,758
4958,19031,19041,121,89,913,-1039,52,53,38,28478,-16187,-12271,918,759
4958,19054,19064,133,89,909,-751,53,51,37,28448,-16259,-12271,921,760
4958,19077,19087,119,89,914,-607,56,50,36,28274,-16289,-12558,919,761
4958,19100,19109,126,91,891,-927,48,54,34,28268,-16205,-12450,922,762
4958,19128,19137,128,97,907,-1071,50,53,41,28238,-16211,-12169,917,763
4958,19150,19160,119,87,903,-751,50,51,38,28340,-16181,-12271,921,764
4958,19173,19183,123,88,909,-943,48,50,38,28394,-16361,-12265,921,765
4958,19196,19206,124,91,899,-1055,45,50,34,28376,-16175,-12378,918,766
4958,19219,19228,122,91,903,-1199,53,57,40,28238,-16247,-12235,924,767
4958,19241,19251,120,82,894,-1343,49,56,36,28274,-16283,-12151,921,768
4958,19264,19274,119,82,896,-943,48,54,33,28364,-16247,-12217,923,769
4958,19287,19297,117,83,903,-1535,53,49,40,28376,-16175,-12019,922,770
4958,19309,19319,129,88,897,-1135,50,50,35,28286,-16265,-12217,919,771
4958,19332,19342,117,90,908,-287,44,49,32,28364,-16235,-12355,922,772
4958,19355,19365,115,96,904,-559,48,51,37,28388,-16283,-12426,920,773
4958,19378,19388,119,90,902,-671,54,53,35,28472,-16373,-12516,919,774
4958,19400,19410,123,87,896,-575,53,50,38,28322,-16127,-12474,920,775
4958,19439,19449,123,91,908,-783,50,51,38,28256,-16313,-12205,922,776
4958,19461,19471,122,86,902,-1007,46,49,35,28364,-16235,-12373,921,777
4958,19484,19494,123,91,904,-575,53,48,34,28436,-16163,-12301,913,778
4958,19507,19517,124,82,902,-1263,52,48,34,28519,-16139,-12253,921,779
4958,19530,19540,127,96,892,-1087,51,56,37,28490,-16073,-12564,919,780
4958,19553,19562,131,92,903,-511,49,50,37,28424,-16235,-12337,921,781
4958,19575,19585,123,89,893,-1247,52,52,36,28490,-16421,-12378,919,782
4958,19598,19608,115,91,895,-1407,52,52,37,28448,-16355,-12426,920,783
4958,19621,19631,118,90,903,-1231,50,53,36,28382,-16169,-12313,920,784
4958,19644,19654,117,90,908,-831,51,48,36,28418,-16127,-12630,918,785
4958,19666,19676,131,93,911,-1071,52,51,38,28424,-16223,-12510,921,786
4958,19689,19699,123,88,903,-799,53,51,32,28376,-16193,-12343,921,787
4958,19712,19722,119,93,902,-751,54,56,38,28268,-16277,-12444,920,788
4958,19735,19745,122,90,908,-623,52,46,35,28406,-16175,-12373,920,789
4958,19763,19773,127,93,901,-895,52,56,37,28328,-16049,-12672,920,790
4958,19786,19795,119,88,893,-1071,54,51,37,28388,-16014,-12642,921,791
4958,19808,19818,125,91,903,-943,52,49,36,28316,-16133,-12660,919,792
4958,19831,19841,132,93,896,-1103,45,50,30,28250,-16355,-12474,923,793
4958,19854,19864,123,96,898,-847,54,54,36,28454,-16139,-12277,921,794
4958,19877,19887,128,81,903,-943,53,49,35,28358,-16343,-12103,921,795
4958,19899,19909,121,92,902,-895,50,56,30,28196,-16235,-12283,920,796
4958,19922,19932,115,84,899,-1151,56,50,34,28238,-16133,-12043,920,797
4958,19945,19955,121,92,905,-879,56,51,38,28226,-16307,-12073,916,798
4958,19968,19978,126,91,896,-623,52,59,36,28244,-16271,-12450,918,799
4958,19991,20000,123,89,910,-943,49,49,37,28370,-16337,-12355,923,800
4958,20013,20023,117,89,906,-655,56,46,33,28232,-16433,-12199,919,801
4958,20036,20046,114,97,891,-1055,53,54,41,28322,-16115,-12420,922,802
4958,20059,20069,119,88,909,-655,56,49,33,28400,-16103,-12432,919,803
4958,20087,20097,128,94,898,-1135,56,57,41,28184,-16241,-12061,921,804
4958,20110,20119,122,92,902,-1039,54,51,36,28184,-16445,-12414,921,805
4958,20132,20142,116,93,907,-671,51,50,40,28256,-16241,-12367,921,806
4958,20155,20165,125,94,903,-719,53,51,40,28490,-16205,-12337,924,807
4958,20178,20188,123,90,896,-1055,49,48,32,28316,-16235,-12570,921,808
4958,20201,20211,124,83,902,-735,56,50,37,28555,-16295,-12211,920,809
4958,20224,20233,115,94,904,-943,56,51,30,28382,-16409,-12271,921,810
4958,20246,20256,124,95,896,-1327,50,53,37,28418,-16205,-12349,922,811
4958,20269,20279,123,87,898,-815,54,50,37,28436,-16181,-12438,918,812
4958,20292,20302,125,93,899,-959,56,50,35,28214,-16211,-12301,917,813
4958,20315,20325,123,87,901,-879,49,52,38,28202,-16181,-12408,919,814
4958,20337,20347,127,85,898,-703,52,57,37,28250,-16097,-12402,918,815
4958,20360,20370,122,82,899,-815,54,50,36,28454,-16193,-12289,919,816
4958,20383,20393,118,89,908,-1119,50,51,35,28298,-16271,-12235,922,817
4958,20411,20421,128,93,908,-687,52,54,33,28238,-16235,-12325,920,818
4958,20434,20444,117,93,905,-1183,48,53,34,28250,-16217,-12217,918,819
4958,20456,20466,121,91,904,-1151,54,54,40,28334,-16223,-12319,917,820
4958,20479,20489,119,89,903,-239,49,52,34,28388,-16193,-12229,918,821
4958,20502,20512,127,87,904,-495,54,48,36,28035,-16169,-12331,920,822
4958,20525,20535,134,86,900,-831,50,51,38,28190,-16175,-12187,919,823
4958,20547,20557,120,94,905,-591,52,51,37,28130,-16283,-12163,921,824
4958,20570,20580,128,84,905,-703,49,49,34,28214,-16115,-12169,920,825
4958,20593,20603,120,89,903,-687,50,51,37,28232,-16187,-11971,922,826
4958,20616,20626,130,93,901,-1231,49,52,32,28142,-16145,-12211,921,827
4958,20638,20648,119,92,898,-1039,50,53,34,28220,-16145,-12253,917,828
4958,20661,20671,113,87,907,-607,50,52,34,28190,-16103,-12235,919,829
4958,20684,20694,130,94,902,-1103,53,49,38,28232,-16199,-12468,917,830
4958,20728,20738,130,90,905,-319,54,53,38,28214,-16091,-11935,922,831
4958,20806,20816,119,89,898,-655,46,46,34,28400,-16014,-12283,923,832
4958,20863,20873,126,96,900,-1135,56,51,37,28064,-16103,-12295,919,833
4958,20886,20896,118,91,904,-879,51,54,41,28094,-16139,-12492,927,834
4958,20909,20919,129,87,909,-1023,49,51,35,28220,-16283,-12265,918,835
4958,20932,20942,133,84,912,-703,52,48,36,28274,-16241,-12546,921,836
4958,20955,20964,122,91,898,-1103,51,49,43,28298,-16163,-12277,921,837
4958,20977,20987,119,85,903,-799,52,51,33,28466,-16325,-12355,921,838
4958,21000,21010,122,92,897,-591,46,53,37,28076,-16133,-12067,920,839
4958,21023,21033,126,86,905,-1103,54,52,33,28262,-16199,-12450,919,840
4958,21045,21055,119,96,902,-1071,53,57,34,28292,-16020,-12546,921,841
4958,21068,21078,123,87,898,-1087,52,50,28,28358,-16265,-12361,922,842
4958,21091,21101,136,90,906,-431,49,51,33,28286,-16199,-11930,920,843
4958,21114,21123,116,88,903,-687,56,49,34,28322,-16139,-12229,919,844
4958,21136,21146,117,95,900,-783,53,52,37,28334,-16235,-12468,921,845
4958,21164,21174,120,95,902,-655,49,51,32,28196,-16163,-12319,921,846
4958,21194,21204,128,87,906,-863,49,48,35,28238,-16061,-12337,920,847
4958,21217,21227,121,94,890,-671,46,56,33,28400,-16247,-12564,917,848
4958,21240,21250,138,84,898,-1055,50,52,37,28250,-16199,-12337,921,849
4958,21263,21272,124,91,899,-639,51,50,29,28310,-16199,-12361,922,850
4958,21285,21295,131,93,899,-943,54,51,35,28232,-16151,-12181,919,851
4958,21308,21318,121,84,900,-767,58,52,41,28178,-16235,-12199,922,852
4958,21331,21341,121,88,897,-1071,56,56,35,28274,-16361,-12229,919,853
4958,21354,21363,123,91,915,-703,52,49,34,28286,-16205,-12235,921,854
4958,21376,21386,129,91,904,-703,51,54,41,28400,-16205,-12199,919,855
4958,21399,21409,123,87,901,-911,52,53,40,28478,-16157,-12390,919,856
4958,21422,21431,126,92,906,-1103,50,51,37,28184,-16265,-12654,922,857
4958,21444,21454,117,97,898,-975,48,50,43,28238,-16127,-12378,918,858
4958,21472,21482,125,87,902,-1055,54,51,35,28232,-16241,-12067,920,859
4958,21495,21505,115,91,899,-719,50,49,33,28382,-16061,-12600,918,860
4958,21518,21527,128,90,898,-911,48,57,37,28262,-16253,-12468,919,861
4958,21540,21550,126,95,904,-735,48,48,34,28400,-16265,-12690,918,862
4958,21563,21573,123,99,903,-847,50,51,35,28370,-16385,-12373,918,863
4958,21586,21596,130,92,911,-591,49,51,35,28340,-16349,-12283,916,864
4958,21609,21618,122,91,899,-975,53,53,29,28280,-16235,-12373,921,865
4958,21631,21641,128,96,900,-735,53,50,37,28484,-16445,-12313,920,866
4958,21654,21664,123,89,897,-671,51,52,33,28442,-16193,-12277,919,867
4958,21677,21686,121,95,898,-831,54,57,43,28442,-16121,-12396,918,868
4958,21699,21709,119,97,896,-511,50,53,34,28334,-16091,-12462,920,869
4958,21722,21732,120,94,900,-1039,51,50,29,28543,-16199,-12145,920,870
4958,21745,21754,119,86,903,-863,50,53,40,28268,-16145,-11918,919,871
4958,21767,21777,129,87,900,-815,53,53,36,28370,-16313,-12079,919,872
4958,21802,21812,133,92,898,-1087,54,51,36,28400,-16205,-12349,922,873
4958,21824,21834,123,89,900,-1119,50,45,34,28460,-16373,-12253,920,874
4958,21847,21857,117,89,900,-1071,54,53,36,28549,-16247,-12390,921,875
4958,21870,21880,120,91,900,-943,54,51,38,28376,-15924,-12355,918,876
4958,21892,21902,121,88,904,-399,56,53,41,28394,-16103,-12396,918,877
4958,21915,21925,134,84,902,-847,60,51,42,28238,-16235,-12474,921,878
4958,21938,21948,121,93,897,-1103,52,51,38,28184,-16097,-12618,922,879
4958,21960,21970,117,91,891,-959,59,49,37,28352,-16097,-12396,920,880
4958,21983,21993,119,93,901,-959,50,50,37,28274,-16020,-12546,919,881
4958,22006,22016,132,98,901,-783,53,49,34,28280,-16055,-12810,921,882
4958,22028,22038,121,93,896,-607,50,52,37,28424,-16277,-12600,919,883
4958,22051,22061,123,89,902,-1183,53,46,37,28424,-16073,-12480,922,884
4958,22074,22084,120,91,908,-1375,49,54,36,28316,-16169,-12361,920,885
4958,22096,22106,121,102,902,-1231,49,46,32,28501,-16139,-12570,920,886
4958,22133,22142,120,88,885,-1087,50,57,35,28358,-16187,-12504,919,887
4958,22155,22165,124,91,891,-879,48,50,36,28142,-16049,-12510,919,888
4958,22178,22188,121,87,896,-415,52,52,36,28466,-16193,-12576,922,889
4958,22201,22210,121,95,900,-943,58,50,36,28268,-16157,-12594,921,890
4958,22223,22233,121,88,904,-815,51,50,36,28388,-16169,-12229,920,891
4958,22246,22256,133,80,902,-1103,54,49,29,28304,-16409,-12367,921,892
4958,22269,22279,127,89,900,-655,52,52,33,28214,-16169,-12702,920,893
4958,22292,22301,119,96,893,-1087,46,48,30,28466,-16271,-12319,925,894
4958,22314,22324,121,90,907,-623,50,56,35,28478,-16091,-12289,919,895
4958,22337,22347,119,94,904,-879,51,50,41,28627,-16181,-12241,922,896
4958,22360,22370,115,82,908,-415,46,54,34,28130,-16295,-12097,918,897
4958,22383,22392,128,87,900,-783,49,48,36,28190,-16175,-12373,919,898
4958,22405,22415,125,91,905,-1119,48,52,35,28346,-16205,-12522,918,899
4958,22428,22438,117,92,900,-863,53,51,37,28292,-16109,-12666,917,900
4958,22456,22466,116,95,895,-1087,52,49,37,28274,-16055,-12337,921,901
4958,22479,22489,119,99,906,-1135,52,56,38,28178,-16229,-12414,921,902
4958,22502,22512,126,98,901,-479,54,48,30,28364,-16259,-12235,924,903
4958,22525,22534,122,91,900,-1151,50,52,38,28454,-16331,-12331,926,904
4958,22548,22557,120,88,902,-735,52,49,34,28346,-16313,-12265,921,905
4958,22570,22580,123,89,904,-1279,57,57,37,28352,-16277,-12313,921,906
4958,22593,22603,123,91,898,-1199,53,51,40,28340,-16193,-12307,920,907
4958,22616,22626,118,84,906,-591,51,54,35,28370,-16031,-12331,921,908
4958,22639,22649,128,92,907,-1279,50,50,36,28418,-16313,-12456,917,909
4958,22662,22672,125,93,906,-671,52,48,34,28573,-16211,-12576,920,910
4958,22685,22695,128,87,898,-1711,51,49,37,28460,-16349,-12229,921,911
4958,22708,22718,123,97,907,-751,52,49,34,28310,-16145,-12151,921,912
4958,22731,22741,123,90,904,-863,46,52,34,28543,-16313,-12396,923,913
4958,22754,22763,119,86,908,-1071,57,53,34,28609,-16199,-12432,921,914
4958,22782,22792,120,89,907,-671,49,53,32,28412,-16103,-12450,920,915
4958,22805,22815,121,88,891,-863,50,52,36,28310,-16139,-12295,917,916
4958,22828,22837,126,91,906,-1247,54,57,40,28490,-16067,-12367,919,917
4958,22850,22860,124,89,897,-671,53,58,36,28388,-16133,-12337,921,918
4958,22873,22883,108,85,906,-783,50,50,36,28352,-16157,-12259,919,919
4958,22896,22906,118,94,902,-911,50,52,42,28244,-16031,-11906,922,920
4958,22919,22929,123,91,901,-927,50,45,36,28346,-16103,-12037,918,921
4958,22942,22952,128,82,894,-447,50,53,38,28292,-16181,-12307,916,922
4958,22965,22975,124,91,900,-895,50,48,35,28298,-16307,-12325,908,923
4958,22988,22998,128,93,916,-447,54,51,36,28346,-16133,-12672,921,924
4958,23011,23021,121,89,898,-1071,56,51,37,28238,-16193,-12438,919,925
4958,23034,23043,121,98,898,-511,46,54,38,28154,-16211,-12331,919,926
4958,23057,23066,119,94,901,-1151,51,51,34,28250,-16163,-12229,918,927
4958,23079,23089,121,91,894,-959,53,52,37,28232,-16223,-12600,918,928
4958,23108,23118,125,84,911,-1055,48,51,34,28310,-16199,-12432,919,929
4958,23130,23140,125,94,900,-863,51,57,40,28154,-16211,-12600,918,930
4958,23153,23163,128,93,900,-687,57,48,34,28442,-16331,-12211,919,931
4958,23176,23186,119,82,904,-1135,51,48,35,28400,-16014,-12139,921,932
4958,23199,23209,135,95,900,-911,56,52,38,28334,-16127,-12055,921,933
4958,23222,23232,118,93,896,-783,53,53,37,28286,-15876,-12001,919,934
4958,23245,23255,119,91,902,-847,54,53,41,28172,-16008,-12594,920,935
4958,23268,23278,117,93,902,-911,50,52,36,28442,-16043,-12217,922,936
4958,23291,23301,113,92,907,-1167,49,53,40,28525,-16181,-12223,921,937
4958,23314,23324,115,84,895,-1503,46,50,29,28244,-16217,-12480,921,938
4958,23337,23346,121,94,899,-1167,53,48,32,28280,-16193,-12253,918,939
4958,23359,23369,130,89,906,-1215,53,52,35,28268,-16313,-12121,923,940
4958,23382,23392,114,83,896,-895,53,48,36,28190,-16265,-12235,923,941
4958,23411,23420,125,94,907,-847,50,48,33,28232,-16151,-12157,921,942
4958,23433,23443,122,89,902,-1039,52,49,38,28364,-16049,-12301,918,943
4958,23456,23466,123,82,902,-1199,52,56,38,28555,-16026,-12133,920,944
4958,23479,23489,123,89,912,-943,52,54,41,28298,-16091,-12313,919,945
4958,23502,23512,122,93,901,-783,50,53,37,28268,-16163,-12361,920,946
4958,23525,23535,130,90,910,-623,56,50,30,28316,-16169,-12408,922,947
4958,23548,23558,121,89,896,-559,53,53,42,28322,-16181,-12301,919,948
4958,23571,23580,122,93,907,-863,54,49,35,28322,-16085,-12666,921,949
4958,23593,23603,127,93,902,-703,53,46,38,28364,-16379,-12343,918,950
4958,23616,23626,121,90,913,-863,54,52,36,28364,-16085,-12199,919,951
4958,23639,23649,121,91,899,-959,48,50,35,28220,-16157,-12510,922,952
4958,23662,23672,119,92,904,-511,52,53,33,28178,-16169,-12343,925,953
4958,23685,23695,124,89,901,-1007,44,53,34,28136,-16319,-12426,924,954
4958,23708,23718,123,86,903,-303,54,51,35,28154,-16073,-12253,919,955
4958,23736,23746,126,97,900,-831,53,58,36,28070,-16187,-12390,919,956
4958,23759,23769,121,86,910,-431,53,56,34,28136,-16223,-12133,920,957
4958,23782,23791,120,84,904,-1055,56,51,35,28274,-16205,-12241,918,958
4958,23804,23814,121,87,906,-719,56,52,38,28184,-16079,-12073,912,959
4958,23827,23837,117,94,900,-831,53,51,36,28112,-16301,-12402,917,960
4958,23850,23860,126,90,900,-1055,50,46,35,28316,-16289,-12367,918,961
4958,23873,23883,124,86,905,-911,51,54,36,28082,-16367,-12594,916,962
4958,23896,23906,121,89,902,-703,53,50,38,28142,-16043,-12822,921,963
4958,23919,23929,132,84,903,-1183,54,52,40,28310,-16109,-12474,921,964
4958,23942,23952,130,87,898,-1135,49,54,34,28136,-16187,-12343,921,965
4958,23965,23974,113,87,907,-911,51,52,38,28352,-16211,-12468,919,966
4958,23987,23997,121,86,893,-1247,54,60,40,28220,-16223,-12384,918,967
4958,24010,24020,132,94,892,-1199,53,52,41,28178,-16373,-12229,915,968
4958,24041,24050,123,86,909,-895,50,50,38,28232,-16283,-12367,918,969
4958,24069,24079,119,95,898,-783,46,51,35,28106,-16163,-12588,919,970
4958,24092,24101,126,87,904,-719,52,45,32,28154,-16331,-12115,917,971
4958,24114,24124,119,84,896,-1023,51,52,35,28094,-16283,-12396,921,972
4958,24137,24147,119,92,891,-559,50,52,30,28316,-16085,-12396,921,973
4958,24160,24170,117,89,898,-1135,54,46,41,28196,-16313,-12319,918,974
4958,24183,24193,118,94,911,-1263,51,49,37,28160,-16247,-12540,923,975
4958,24206,24216,120,91,903,-703,54,49,29,28112,-16223,-11193,921,976
4958,24229,24238,117,89,899,-1055,51,50,37,28166,-16361,-12163,919,977
4958,24251,24261,123,89,909,-959,56,49,37,28178,-16295,-12396,923,978
4958,24274,24284,133,88,899,-479,53,48,35,28418,-16492,-12390,922,979
4958,24297,24307,122,91,902,-607,50,48,37,28328,-16217,-12672,920,980
4958,24320,24330,128,99,906,-831,50,53,37,28322,-16259,-12277,921,981
4958,24343,24353,124,86,904,-1135,54,53,36,28148,-16343,-12325,921,982
4958,24366,24376,125,94,906,-479,49,48,34,28220,-16223,-12235,919,983
4958,24394,24404,125,89,911,-639,52,51,38,28400,-16283,-12019,919,984
4958,24417,24426,128,90,900,-767,51,49,38,28382,-16343,-11971,921,985
4958,24439,24449,123,84,896,-1071,53,50,34,28358,-16277,-12247,919,986
4958,24462,24472,118,87,902,-655,50,49,38,28346,-16223,-12343,921,987
4958,24485,24495,129,88,904,-927,50,46,38,28166,-16199,-12151,916,988
4958,24508,24518,118,89,902,-495,53,49,33,28316,-16415,-12151,914,989
4958,24531,24541,123,87,898,-767,52,50,40,28454,-16217,-12175,919,990
4958,24554,24563,127,89,898,-975,52,49,37,28328,-16205,-12390,926,991
4958,24576,24586,128,82,902,-1311,52,53,42,28454,-16169,-12175,918,992
4958,24599,24609,118,93,906,-447,56,54,38,28388,-16229,-12301,923,993
4958,24622,24632,123,89,898,-1103,52,50,40,28220,-16169,-12343,914,994
4958,24645,24655,123,92,899,-1439,52,53,41,28041,-16193,-12169,920,995
4958,24668,24678,122,90,912,-1055,51,45,33,28316,-15942,-12414,919,996
4958,24691,24701,133,95,899,-895,56,48,35,28436,-16121,-12612,921,997
4958,24719,24729,123,91,898,-1423,50,50,37,28370,-16103,-12456,917,998
4958,24742,24751,127,91,896,-703,54,52,37,28346,-16061,-12486,920,999
4958,24764,24774,110,91,907,-1391,52,51,38,28322,-15948,-12426,921,1000
4958,24787,24797,126,84,905,-1055,51,51,37,28448,-16223,-12085,919,1001
4958,24810,24820,124,83,902,-543,52,54,40,28298,-16109,-12331,919,1002
4958,24833,24843,115,87,902,-1199,50,48,37,28358,-16115,-12073,920,1003
4958,24856,24866,119,88,907,-1263,53,46,36,28364,-16295,-12115,920,1004
4958,24879,24889,123,93,904,-975,54,50,40,28322,-16253,-12235,918,1005
4958,24902,24912,115,95,905,-1183,51,54,40,28507,-16157,-12223,919,1006
4958,24925,24935,120,93,908,-1087,56,53,37,28316,-16193,-12157,924,1007
4958,24948,24957,127,86,902,-1247,52,49,43,28519,-16073,-12456,928,1008
4958,24970,24980,120,89,907,-1311,50,57,37,28394,-16133,-12492,921,1009
4958,24993,25003,126,89,902,-1375,53,54,36,28412,-16127,-12295,917,1010
4958,25016,25026,119,92,902,-1087,49,54,38,28495,-16277,-12199,920,1011
4958,25044,25054,124,86,902,-943,53,50,41,28394,-16037,-12414,916,1012
4958,25077,25087,125,98,900,-591,49,57,33,28292,-15996,-12193,919,1013
4958,25100,25110,113,96,900,-895,51,54,38,28160,-16002,-12337,921,1014
4958,25123,25133,127,87,903,-751,57,48,36,28232,-16157,-12420,918,1015
4958,25146,25156,124,86,903,-671,49,50,32,28256,-16193,-12331,919,1016
4958,25169,25178,118,93,913,-975,50,51,36,28256,-16289,-12672,915,1017
4958,25191,25201,131,89,899,-463,50,48,37,28316,-16247,-12636,917,1018
4958,25214,25224,127,99,904,-1023,49,52,35,28250,-16067,-12408,918,1019
4958,25237,25247,125,91,896,-735,53,51,36,28130,-16193,-12229,920,1020
4958,25260,25270,112,85,906,-831,51,56,32,28220,-16139,-12343,921,1021
4958,25283,25293,123,85,913,-703,52,49,37,28256,-16157,-12468,921,1022
4958,25306,25316,121,91,896,-1039,50,46,34,28310,-16223,-12456,917,1023
4958,25329,25338,115,84,896,-1167,58,49,41,28232,-16205,-12241,921,1024
4958,25351,25361,124,86,898,-655,54,49,32,28238,-16337,-12241,921,1025
4958,25373,25383,124,92,902,-703,50,48,34,28268,-16181,-12402,920,1026
4958,25396,25406,121,100,891,-911,50,53,38,28220,-16247,-12307,920,1027
4958,25419,25428,118,90,895,-1519,50,53,35,28352,-16307,-12432,918,1028
4958,25441,25451,120,93,904,-639,54,50,37,28382,-16139,-12666,921,1029
4958,25464,25474,127,93,906,-911,49,48,37,28388,-16037,-12666,921,1030
4958,25487,25497,123,92,903,-1055,48,54,35,28268,-16199,-12678,917,1031
4958,25510,25520,128,89,896,-1759,51,48,32,28226,-16283,-12349,919,1032
4958,25533,25543,128,90,900,-703,49,49,34,28340,-16181,-12259,919,1033
4958,25555,25565,113,89,898,-815,50,52,35,28202,-16103,-12373,917,1034
4958,25578,25588,128,89,901,-1023,53,51,33,28232,-16331,-12331,913,1035
4958,25601,25611,118,89,895,-671,51,52,37,28220,-16091,-12522,915,1036
4958,25624,25634,121,86,900,-1151,46,54,40,28322,-16187,-12516,917,1037
4958,25647,25657,126,91,901,-1055,53,54,33,28220,-16115,-12319,929,1038
4958,25675,25685,123,91,896,-431,53,46,43,28160,-16163,-12654,919,1039
4958,25698,25708,120,93,906,-1103,46,49,41,28322,-16169,-12373,919,1040
4958,25721,25730,120,89,903,-639,54,57,37,28166,-16199,-12564,921,1041
4958,25743,25753,122,101,905,-975,50,48,36,28124,-16049,-12510,917,1042
4958,25766,25776,126,86,901,-1055,50,49,32,28190,-16073,-12444,922,1043
4958,25789,25799,119,90,896,-927,52,51,34,28334,-16307,-12546,920,1044
4958,25812,25822,123,98,899,-1231,53,49,35,28226,-16307,-12546,925,1045
4958,25835,25845,130,87,901,-799,57,53,34,28280,-16133,-12804,919,1046
4958,25858,25867,126,95,906,-735,46,54,28,28262,-16002,-12462,921,1047
4958,25881,25890,132,84,910,-831,51,54,35,28292,-16085,-12325,915,1048
4958,25903,25913,130,91,898,-1007,49,50,38,28286,-16516,-12247,920,1049
4958,25948,25958,127,98,898,-831,50,52,36,28394,-16067,-12396,922,1050
4958,25971,25981,120,100,900,-1343,50,50,40,28418,-16151,-12540,920,1051
4958,25994,26003,131,86,894,-975,53,52,34,28268,-16002,-12211,919,1052
4958,26022,26032,125,89,902,-863,50,53,40,28280,-16133,-12702,922,1053
4958,26044,26054,121,87,898,-1039,54,50,42,28292,-16205,-12444,922,1054
4958,26067,26077,117,93,904,-431,50,56,34,28124,-16211,-12798,921,1055
4958,26090,26100,120,84,900,-767,56,46,41,28370,-15960,-12349,919,1056
4958,26113,26123,108,89,903,-687,46,51,40,28472,-16049,-12355,921,1057
4958,26136,26146,118,90,906,-1023,53,52,37,28322,-15894,-12223,925,1058
4958,26159,26169,119,85,903,-1151,52,53,38,28328,-16391,-12109,916,1059
4958,26182,26191,132,81,901,-991,53,51,35,28304,-15984,-12492,921,1060
4958,26204,26214,121,87,904,-447,56,54,40,28298,-16097,-12205,920,1061
4958,26227,26237,121,95,887,-703,49,52,33,28244,-16109,-12235,920,1062
4958,26250,26260,122,93,904,-991,54,51,35,28328,-16349,-12115,921,1063
4958,26273,26283,127,95,893,-719,50,48,40,28436,-16211,-12283,922,1064
4958,26296,26306,115,97,907,-1407,51,44,30,28418,-16061,-12187,920,1065
4958,26319,26329,128,89,901,-671,52,50,34,28256,-16085,-12456,921,1066
4958,26347,26357,116,90,900,-815,52,49,33,28292,-16043,-12157,922,1067
4958,26370,26379,115,92,896,-735,50,49,36,28304,-16295,-12331,916,1068
4958,26392,26402,118,90,901,-1343,52,51,37,28346,-16205,-12259,920,1069
4958,26415,26425,128,91,896,-911,53,44,33,28490,-16014,-12241,918,1070
4958,26438,26448,121,87,908,-879,49,44,30,28507,-16187,-12313,920,1071
4958,26461,26471,123,91,893,-799,49,50,34,28322,-16097,-12187,919,1072
4958,26484,26494,126,96,902,-911,51,61,33,28484,-16145,-12361,917,1073
4958,26507,26516,113,94,898,-735,54,49,32,28274,-16163,-12432,922,1074
4958,26529,26539,120,85,906,-799,50,52,34,28328,-16277,-12325,921,1075
4958,26552,26562,115,90,913,-495,54,54,41,28454,-16337,-11971,917,1076
4958,26575,26585,126,91,897,-927,54,53,41,28430,-16373,-12157,921,1077
4958,26598,26608,129,95,904,-655,45,52,32,28430,-16241,-11995,922,1078
4958,26621,26631,121,87,899,-1247,48,58,34,28406,-16385,-12247,920,1079
4958,26644,26653,127,97,903,-1007,49,51,38,28454,-16313,-12456,918,1080
4958,26672,26681,126,96,904,-447,50,53,37,28364,-16175,-12259,921,1081
4958,26694,26704,124,90,904,-1055,51,58,43,28298,-16193,-12271,920,1082
4958,26717,26727,111,89,900,-1119,51,48,41,28442,-16073,-12378,922,1083
4958,26740,26750,129,79,904,-1103,43,51,36,28424,-16079,-12013,919,1084
4958,26763,26773,128,89,899,-655,56,52,29,28490,-16115,-12444,923,1085
4958,26786,26795,110,91,903,-1071,50,50,37,28549,-16211,-12199,917,1086
4958,26808,26818,122,95,898,-799,54,52,41,28495,-16480,-12127,918,1087
4958,26831,26841,117,85,893,-1039,54,50,34,28645,-16235,-12145,920,1088
4958,26854,26864,119,93,895,-1023,60,49,35,28436,-16331,-11989,924,1089
4958,26884,26894,126,89,906,-351,51,49,33,28495,-16355,-12211,923,1090
4958,26907,26917,127,93,904,-559,56,54,36,28370,-16325,-12283,917,1091
4958,26930,26940,123,89,891,-1295,53,53,38,28382,-16163,-12343,921,1092
4958,26953,26963,128,93,902,-1039,53,56,42,28448,-16259,-12217,919,1093
4958,26976,26985,133,101,900,-735,54,53,35,28286,-16271,-12253,922,1094
4958,27004,27014,121,90,896,-831,51,49,33,28268,-16289,-12432,921,1095
4958,27026,27036,117,91,899,-655,46,48,36,28364,-16337,-12349,918,1096
4958,27049,27059,129,86,902,-895,48,48,36,28370,-16343,-12223,918,1097
4958,27072,27082,123,92,894,-751,48,45,33,28615,-16229,-12546,920,1098
4958,27095,27105,124,95,904,-1023,48,50,29,28364,-16229,-12414,921,1099
4958,27118,27127,125,84,900,-1215,48,50,34,28178,-16301,-12325,921,1100
4958,27140,27150,114,89,903,-1199,53,52,41,28358,-16516,-12211,922,1101
4958,27163,27173,131,91,889,-879,52,50,34,28292,-16355,-12672,917,1102
4958,27186,27196,126,92,903,-463,49,52,41,28412,-16325,-12079,916,1103
4958,27209,27219,108,90,902,-911,53,53,40,28304,-16307,-12235,923,1104
4958,27231,27241,121,92,902,-879,48,53,36,28400,-16259,-12367,918,1105
4958,27254,27264,119,87,896,-1423,53,53,35,28304,-16492,-12295,922,1106
4958,27277,27287,126,93,895,-1071,49,49,35,28597,-16241,-12313,921,1107
4958,27300,27310,118,89,889,-719,50,53,33,28436,-16181,-12163,921,1108
4958,27328,27338,126,92,907,-1407,52,51,40,28370,-16097,-11888,920,1109
4958,27351,27360,118,96,898,-735,48,56,32,28322,-16073,-12247,913,1110
4958,27373,27383,130,100,898,-1119,46,56,36,28454,-16169,-12235,919,1111
4958,27396,27406,123,91,895,-1183,53,52,42,28292,-16331,-12103,918,1112
4958,27419,27429,122,87,906,-1167,50,51,38,28238,-16295,-12169,917,1113
4958,27442,27451,128,91,900,-815,50,48,43,28310,-16253,-12001,924,1114
4958,27464,27474,114,80,891,-671,51,53,35,28346,-16211,-11930,919,1115
4958,27487,27497,122,84,900,-671,52,50,29,28340,-16067,-12097,922,1116
4958,27510,27520,126,93,900,-815,49,50,33,28442,-16121,-11858,919,1117
4958,27533,27543,124,88,904,-767,52,51,40,28334,-16157,-12235,920,1118
4958,27556,27566,114,95,900,-799,46,49,35,28430,-16037,-12235,921,1119
4958,27579,27588,130,88,906,-1007,50,52,33,28304,-16109,-12373,920,1120
4958,27601,27611,123,88,906,-543,50,54,34,28484,-16199,-12378,920,1121
4958,27629,27639,118,84,899,-815,54,52,32,28525,-16205,-12325,920,1122
4958,27652,27662,126,87,893,-975,50,52,29,28490,-16133,-12576,920,1123
4958,27675,27685,128,93,897,-1087,46,51,33,28292,-16235,-12121,920,1124
4958,27698,27708,125,93,900,-1567,49,53,38,28286,-16199,-12121,922,1125
4958,27720,27730,126,93,907,-735,53,49,34,28561,-16037,-12343,921,1126
4958,27743,27753,131,84,914,-1295,50,49,33,28352,-16073,-12337,919,1127
4958,27766,27776,128,90,889,-991,51,44,32,28406,-16229,-12361,922,1128
4958,27789,27799,121,87,900,-975,56,54,37,28310,-16139,-12259,919,1129
4958,27812,27822,123,86,906,-1071,56,49,32,28196,-16061,-12265,921,1130
4958,27835,27844,134,87,909,-1071,50,50,44,28442,-16307,-12091,916,1131
4958,27857,27867,130,87,903,-559,50,46,27,28244,-16199,-11876,917,1132
4958,27880,27890,121,89,903,-463,51,56,38,28388,-16079,-12091,921,1133
4958,27903,27913,117,91,907,-703,53,54,33,28328,-16133,-12564,918,1134
4958,27926,27936,123,88,900,-1103,53,50,41,28370,-16055,-12414,921,1135
4958,27954,27964,123,85,904,-1087,46,49,34,28424,-16127,-12367,921,1136
4958,27977,27986,121,86,898,-1263,52,54,38,28382,-16026,-12396,920,1137
4958,27999,28009,126,84,905,-687,51,53,37,28340,-16169,-12289,920,1138
4958,28022,28032,121,93,900,-943,49,53,37,28328,-16073,-12325,920,1139
4958,28045,28055,124,87,899,-543,50,50,34,28388,-16127,-12361,920,1140
4958,28068,28078,124,87,904,-943,51,54,33,28519,-16061,-12331,923,1141
4958,28091,28100,126,93,907,-431,53,51,33,28376,-16301,-12259,922,1142
4958,28113,28123,122,91,904,-911,53,56,34,28310,-15852,-12307,918,1143
4958,28136,28146,117,94,891,-799,52,52,41,28346,-15924,-12301,922,1144
4958,28159,28169,121,97,906,-991,51,50,36,28531,-16091,-12588,919,1145
4958,28182,28192,117,93,905,-1231,53,50,35,28322,-16169,-12486,916,1146
4958,28205,28214,117,84,915,-607,51,54,43,28472,-16247,-12450,920,1147
4958,28227,28237,119,89,918,-1039,50,50,38,28250,-16307,-12151,920,1148
4958,28250,28260,122,92,900,-943,49,54,35,28412,-16026,-11906,920,1149
4958,28278,28288,122,92,900,-815,50,50,38,28334,-15996,-12223,922,1150
4958,28301,28311,129,96,903,-1087,51,57,38,28238,-16157,-12211,921,1151
4958,28324,28334,121,83,896,-1087,57,54,32,28364,-16020,-12528,920,1152
4958,28347,28356,123,89,902,-783,51,46,34,28400,-16283,-12331,916,1153
4958,28369,28379,121,86,906,-639,50,49,35,28274,-16026,-12229,922,1154
4958,28392,28402,118,87,906,-1039,53,51,33,28388,-16037,-12313,920,1155
4958,28415,28425,115,84,900,-895,50,51,34,28370,-16175,-12390,918,1156
4958,28438,28448,130,92,898,-575,54,53,36,28070,-16253,-12067,919,1157
4958,28461,28470,126,95,899,-1135,53,46,40,28310,-16205,-12546,919,1158
4958,28483,28493,117,94,908,-591,50,52,33,28226,-15984,-12175,919,1159
4958,28506,28516,126,90,906,-1471,51,51,35,28334,-16313,-12390,922,1160
4958,28529,28539,132,88,904,-399,57,46,37,28370,-16187,-12402,911,1161
4958,28552,28561,128,88,898,-543,50,52,33,28412,-16199,-12241,918,1162
4958,28574,28584,124,89,893,-463,53,49,30,28448,-16325,-12552,920,1163
4958,28603,28612,120,91,894,-655,54,54,42,28454,-16103,-12217,919,1164
4958,28625,28635,115,87,901,-863,51,52,36,28364,-16463,-12468,924,1165
4958,28648,28658,118,89,898,-1023,48,54,35,28448,-16109,-12468,917,1166
4958,28671,28681,115,93,897,-335,50,53,32,28292,-16187,-12480,920,1167
4958,28694,28703,119,89,899,-863,51,50,34,28094,-16277,-12606,919,1168
4958,28716,28726,121,97,895,-687,54,59,38,28058,-16295,-12540,922,1169
4958,28739,28749,121,91,904,-1151,50,48,37,28178,-16211,-12390,922,1170
4958,28762,28772,128,91,900,-879,49,54,37,28130,-16343,-12402,920,1171
4958,28785,28795,128,89,896,-559,59,51,38,28250,-16205,-12402,920,1172
4958,28807,28817,126,89,909,-623,52,49,33,28328,-16097,-12295,927,1173
4958,28830,28840,123,89,906,-799,53,46,40,28070,-16223,-12414,928,1174
4958,28853,28863,124,91,902,-1087,49,48,37,28047,-16193,-12205,925,1175
4958,28876,28886,118,92,898,-1055,57,49,40,28298,-16091,-12959,921,1176
4958,28899,28908,120,87,900,-959,52,45,33,28250,-16247,-12367,920,1177
4958,28927,28937,129,89,911,-639,50,52,33,28148,-16073,-12738,919,1178
4958,28949,28959,119,90,911,-1151,51,49,32,28106,-16361,-12450,922,1179
4958,28972,28982,119,89,902,-1295,51,52,34,27993,-16283,-12193,920,1180
4958,28995,29005,126,91,900,-847,54,52,40,28220,-16049,-12325,921,1181
4958,29018,29028,119,91,903,-687,52,50,36,28244,-16307,-12528,922,1182
4958,29040,29050,123,92,895,-1007,50,51,32,28232,-16313,-12600,922,1183
4958,29063,29073,130,87,900,-975,53,45,36,28052,-16205,-12540,921,1184
4958,29086,29096,127,90,906,-895,54,42,34,28184,-15918,-12558,919,1185
4958,29109,29119,123,93,896,-1039,56,51,37,28130,-16049,-12594,924,1186
4958,29132,29141,123,90,899,-1199,54,48,35,28310,-16079,-12492,917,1187
4958,29154,29164,122,95,908,-991,54,56,38,28196,-16002,-12337,920,1188
4958,29177,29187,125,89,895,-703,43,49,27,28208,-16085,-12301,918,1189
4958,29200,29210,126,95,906,-975,46,54,40,28160,-16085,-12666,920,1190
4958,29223,29232,122,99,897,-815,52,48,36,28316,-16157,-12666,915,1191
4958,29251,29261,128,95,908,-879,56,52,30,28226,-16193,-12636,920,1192
4958,29273,29283,129,89,904,-719,53,49,38,28316,-16097,-12133,921,1193
4958,29296,29306,126,89,904,-1055,49,51,38,28478,-16205,-12630,926,1194
4958,29319,29329,124,89,904,-783,54,52,40,28316,-16331,-12396,920,1195
4958,29342,29352,115,85,902,-1151,51,58,36,28178,-16169,-12582,920,1196
4958,29365,29374,130,91,902,-767,48,50,33,28202,-16229,-12420,921,1197
4958,29387,29397,121,89,900,-1311,50,46,35,28178,-16085,-12486,922,1198
4958,29410,29420,117,88,900,-431,50,53,41,28070,-16091,-12672,924,1199
4958,29433,29443,126,85,904,-895,50,54,32,28112,-16026,-12384,919,1200
4958,29456,29466,125,95,902,-783,52,50,36,28172,-16181,-12600,921,1201
4958,29478,29488,116,91,893,-767,46,51,36,28262,-16097,-12157,921,1202
4958,29501,29511,125,92,893,-1039,51,51,33,28070,-16319,-12319,922,1203
4958,29524,29534,122,94,900,-719,51,50,34,28274,-16247,-12486,918,1204
4958,29552,29562,126,96,897,-1087,51,54,35,28262,-16127,-12666,918,1205
4958,29575,29585,125,92,901,-703,46,51,37,28178,-16097,-12444,922,1206
4958,29597,29607,117,89,900,-1039,56,56,38,28184,-16229,-12636,918,1207
4958,29620,29630,116,89,912,-911,52,51,36,28310,-16265,-12217,920,1208
4958,29643,29653,127,91,904,-943,52,58,42,28340,-15972,-12343,921,1209
4958,29666,29676,128,90,902,-703,48,56,37,28244,-15768,-12073,923,1210
4958,29688,29698,123,92,902,-831,53,54,37,28274,-15906,-12223,921,1211
4958,29719,29729,119,87,904,-655,52,53,37,28190,-16139,-12384,919,1212
4958,29741,29751,110,87,905,-1247,51,45,36,28232,-15870,-12289,918,1213
4958,29764,29774,123,89,902,-1247,57,50,38,28298,-16061,-12319,922,1214
4958,29787,29797,127,93,907,-991,51,50,35,28118,-16049,-12384,919,1215
4958,29810,29819,125,87,909,-799,49,53,27,28280,-15912,-12432,920,1216
4958,29832,29842,133,87,904,-1135,48,52,33,28274,-16127,-12534,921,1217
4958,29855,29865,117,89,900,-847,51,49,34,28172,-16115,-12432,920,1218
4958,29883,29893,123,96,903,-655,50,50,30,28352,-16265,-12151,922,1219
4958,29906,29916,124,97,898,-719,56,45,29,28244,-16157,-12600,917,1220
4958,29928,29938,117,90,904,-767,46,45,33,28280,-16049,-12690,919,1221
4958,29951,29961,126,84,897,-1183,51,51,30,28202,-16145,-12935,919,1222
4958,29974,29984,131,88,909,-1103,54,53,41,28310,-16229,-12953,920,1223
4958,29997,30007,134,89,903,-1183,56,51,38,28292,-15738,-12750,922,1224
4958,30020,30029,119,88,897,-671,50,44,30,28058,-15942,-12977,922,1225
4958,30042,30052,119,94,900,-1167,50,50,36,28088,-16014,-12845,919,1226
4958,30065,30075,121,89,899,-735,52,50,36,28346,-16031,-12786,921,1227
4958,30088,30098,120,95,898,-351,52,48,35,28328,-16079,-12690,919,1228
4958,30111,30120,121,86,901,-1055,52,52,36,28382,-16085,-12384,921,1229
4958,30133,30143,119,84,907,-815,53,57,35,28460,-16031,-12606,918,1230
4958,30156,30166,123,86,908,-1023,56,50,38,28567,-15870,-12355,923,1231
4958,30179,30189,122,93,903,-687,53,52,36,28484,-15840,-12510,917,1232
4958,30207,30217,133,93,904,-607,51,49,32,28561,-15876,-12408,923,1233
4958,30230,30239,115,89,902,-1199,51,51,35,28412,-16097,-12546,923,1234
4958,30252,30262,121,84,894,-1135,46,48,32,28436,-16079,-12600,920,1235
4958,30275,30285,128,87,906,-959,51,49,36,28352,-16121,-12618,919,1236
4958,30298,30308,127,96,898,-831,49,57,41,28370,-15912,-12534,919,1237
4958,30321,30331,114,92,899,-719,57,50,41,28316,-15864,-12444,920,1238
4958,30344,30353,115,88,907,-479,51,53,36,28358,-16061,-12696,919,1239
4958,30366,30376,122,93,902,-1135,56,50,32,28286,-16067,-12804,921,1240
4958,30389,30399,119,93,902,-1231,56,51,35,28316,-15942,-12678,920,1241
4958,30412,30422,121,87,902,-943,57,53,44,28406,-16097,-12510,920,1242
4958,30434,30444,118,91,901,-959,54,54,38,28454,-16367,-12402,920,1243
4958,30457,30467,113,91,897,-719,48,50,34,28298,-16157,-12516,918,1244
4958,30480,30490,119,90,897,-751,49,46,36,28310,-16187,-12618,919,1245
4958,30503,30513,121,96,900,-1071,52,46,33,28436,-16049,-12528,921,1246
4958,30531,30541,123,89,914,-687,53,50,35,28274,-16151,-12636,921,1247
4958,30553,30563,126,91,901,-1167,54,52,38,28256,-15876,-12738,919,1248
4958,30576,30586,125,79,891,-511,49,46,38,28394,-16091,-12534,917,1249
4958,30599,30609,119,84,906,-719,58,54,36,28430,-16151,-12594,920,1250
4958,30632,30642,129,84,899,-1247,54,46,34,28472,-15822,-12708,921,1251
4958,30655,30664,123,83,901,-1439,52,53,36,28328,-16091,-12648,921,1252
4958,30677,30687,125,94,907,-639,48,54,36,28394,-16049,-12696,920,1253
4958,30700,30710,121,90,902,-399,54,52,34,28316,-16097,-12396,917,1254
4958,30723,30733,128,94,914,-911,51,52,40,28280,-16235,-12474,919,1255
4958,30746,30755,119,87,907,-863,52,50,36,28507,-16049,-12420,917,1256
4958,30768,30778,123,92,899,-1103,56,54,36,28567,-16205,-12516,915,1257
4958,30791,30801,115,93,894,-1087,54,51,36,28424,-16127,-12313,919,1258
4958,30814,30824,128,85,898,-1167,58,54,40,28436,-16109,-12522,921,1259
4958,30837,30847,122,93,905,-1023,48,52,36,28364,-16055,-12726,916,1260
4958,30865,30875,120,97,907,-351,51,54,41,28418,-16289,-12510,923,1261
4958,30887,30897,117,87,898,-1167,53,53,38,28094,-16085,-12277,921,1262
4958,30910,30920,121,90,900,-1103,51,50,35,28220,-16097,-12714,921,1263
4958,30933,30943,132,91,907,-671,49,49,36,28507,-16217,-12313,921,1264
4958,30956,30966,123,91,898,-767,52,48,38,28256,-16247,-12468,919,1265
4958,30978,30988,123,96,898,-799,46,54,37,28454,-16014,-12756,916,1266
4958,31001,31011,126,92,903,-943,57,52,40,28274,-16151,-12816,917,1267
4958,31024,31034,133,93,904,-831,56,49,34,28352,-16109,-12857,922,1268
4958,31068,31078,119,93,901,-1071,53,59,35,28352,-15888,-12510,922,1269
4958,31091,31101,121,88,900,-1247,54,51,37,28274,-16139,-12349,920,1270
4958,31114,31124,123,87,910,-559,57,54,38,28388,-16037,-12283,920,1271
4958,31136,31146,123,89,902,-1039,50,56,35,28376,-15888,-12199,923,1272
4958,31159,31169,121,86,900,-1167,57,49,34,28322,-16193,-12438,921,1273
4958,31182,31192,117,95,897,-655,56,54,38,28184,-16151,-12241,921,1274
4958,31210,31220,116,95,903,-463,52,57,42,28250,-16043,-12510,919,1275
4958,31233,31242,123,87,896,-1167,52,53,33,28298,-15978,-12402,920,1276
4958,31255,31265,124,87,902,-1183,50,52,37,28142,-16067,-12031,922,1277
4958,31278,31288,118,84,893,-927,53,52,37,28208,-16037,-12127,919,1278
4958,31301,31311,115,83,906,-751,56,51,40,28118,-16055,-12277,921,1279
4958,31323,31333,119,92,902,-607,53,50,32,28196,-16008,-12211,918,1280
4958,31346,31356,120,94,904,-911,57,54,36,28280,-15942,-12373,920,1281
4958,31369,31379,119,84,907,-975,53,50,34,28178,-16223,-12283,916,1282
4958,31392,31402,122,87,897,-463,56,51,36,28154,-16055,-12480,922,1283
4958,31414,31424,125,85,898,-831,50,50,36,28274,-16061,-12426,920,1284
4958,31437,31447,126,94,899,-959,50,52,38,28214,-16151,-12516,923,1285
4958,31460,31470,128,92,907,-847,57,53,35,28226,-16133,-12492,924,1286
4958,31483,31492,122,89,896,-767,46,53,33,28286,-15990,-12666,918,1287
4958,31511,31520,124,86,898,-991,54,52,36,28286,-16061,-12600,921,1288
4958,31533,31543,126,89,904,-511,50,50,33,28244,-16115,-12378,920,1289
4958,31556,31566,128,90,899,-1183,46,54,41,28202,-16008,-12420,920,1290
4958,31579,31589,114,91,909,-847,56,49,38,28154,-15852,-12019,922,1291
4958,31601,31611,128,87,900,-1295,59,50,35,28268,-16026,-12349,918,1292
4958,31624,31634,121,87,904,-847,53,51,38,28142,-16043,-12570,920,1293
4958,31647,31657,123,87,904,-719,54,54,43,28196,-16055,-12319,918,1294
4958,31670,31679,119,89,903,-735,56,50,36,28370,-16169,-12516,918,1295
4958,31692,31702,130,93,904,-655,48,57,38,28214,-16055,-12492,922,1296
4958,31715,31725,117,84,900,-607,53,52,35,28268,-16181,-12271,918,1297
4958,31738,31748,117,84,896,-351,49,51,36,28076,-16026,-12450,920,1298
4958,31761,31770,123,86,907,-1167,49,44,34,28232,-16229,-12606,917,1299
4958,31783,31793,131,90,906,-735,52,52,35,28256,-16181,-12504,919,1300
4958,31806,31816,125,82,907,-767,56,51,41,28442,-16247,-12355,922,1301
4958,31834,31844,124,88,896,-831,51,48,33,28178,-16151,-12373,920,1302
4958,31857,31866,122,95,904,-1455,50,58,36,28256,-16037,-12576,920,1303
4958,31879,31889,125,84,900,-799,54,49,32,28202,-16061,-12726,919,1304
4958,31902,31912,123,94,903,-735,56,52,37,28184,-16145,-12702,918,1305
4958,31925,31935,121,87,900,-1343,52,49,37,28424,-16055,-12648,918,1306
4958,31947,31957,125,102,898,-991,46,49,41,28328,-16133,-12612,919,1307
4958,31970,31980,127,95,902,-1071,50,46,34,28292,-16097,-12462,919,1308
4958,31993,32003,125,84,906,-799,52,48,38,28322,-16133,-12534,920,1309
4958,32016,32025,128,91,903,-751,58,49,38,28382,-16259,-12420,915,1310
4958,32038,32048,124,91,913,-751,53,54,36,28280,-16020,-12462,917,1311
4958,32061,32071,123,95,900,-671,52,46,34,28130,-16079,-12396,915,1312
4958,32084,32094,119,90,896,-767,48,51,38,28166,-15894,-12857,922,1313
4958,32106,32116,123,87,907,-511,52,49,35,28358,-16109,-12355,919,1314
4958,32129,32139,126,94,899,-671,52,56,36,28322,-16073,-12163,923,1315
4958,32156,32166,128,84,896,-1007,51,56,34,28298,-16289,-12295,920,1316
4958,32179,32189,130,90,898,-287,46,49,37,28106,-16337,-12654,918,1317
4958,32202,32211,123,87,900,-1231,53,50,33,28184,-16026,-12570,921,1318
4958,32224,32234,123,88,900,-655,56,52,36,28160,-16157,-12654,921,1319
4958,32247,32257,128,89,913,-751,52,56,37,28244,-16151,-12666,921,1320
4958,32270,32280,116,92,909,-479,50,50,32,28184,-16079,-12522,920,1321
4958,32293,32302,119,87,896,-719,51,46,33,28100,-16229,-12594,920,1322
4958,32315,32325,123,90,900,-575,51,51,37,28029,-16115,-12492,920,1323
4958,32338,32348,119,95,908,-1263,54,58,37,28268,-16055,-12618,919,1324
4958,32361,32371,125,93,907,-703,51,49,30,28298,-16014,-12881,919,1325
4958,32383,32393,118,89,902,-767,61,58,36,28118,-16145,-12875,920,1326
4958,32406,32416,125,83,911,-799,59,50,37,28364,-16133,-12516,925,1327
4958,32429,32439,119,91,905,-1055,52,54,34,28154,-16247,-12654,921,1328
4958,32452,32461,120,89,899,-1119,49,49,34,28208,-16073,-12666,921,1329
4958,32478,32488,127,84,909,-687,49,49,41,28124,-15882,-12780,922,1330
4958,32500,32510,117,90,904,-1487,57,53,38,28280,-15942,-12696,924,1331
4958,32523,32533,121,97,909,-639,52,48,28,28184,-16079,-12660,922,1332
4958,32553,32563,123,88,891,-1391,51,50,32,28280,-16169,-12486,921,1333
4958,32576,32586,123,84,915,-719,54,57,36,28070,-16229,-12528,919,1334
4958,32599,32608,118,91,904,-847,53,51,35,28226,-16121,-12648,923,1335
4958,32621,32631,130,89,902,-479,56,54,42,28005,-16002,-12570,919,1336
4958,32644,32654,123,84,903,-927,48,45,34,28160,-16014,-12420,920,1337
4958,32667,32677,126,89,900,-991,51,52,42,28124,-16205,-12881,921,1338
4958,32689,32699,114,87,902,-1279,54,49,40,28190,-16103,-12480,919,1339
4958,32712,32722,123,91,906,-975,58,52,40,28142,-16020,-13079,921,1340
4958,32735,32745,120,93,911,-943,49,49,36,28076,-16079,-12935,922,1341
4958,32757,32767,121,88,901,-735,50,56,37,28070,-16085,-12905,918,1342
4958,32780,32790,119,87,904,-943,54,52,35,28292,-16103,-13031,920,1343
4958,32808,32818,124,91,906,-879,52,56,38,28190,-16265,-12678,917,1344
4958,32831,32841,125,85,904,-959,59,50,38,28172,-16199,-12486,920,1345
4958,32854,32864,126,89,902,-703,52,50,40,28202,-16289,-12618,917,1346
4958,32877,32886,126,84,902,-783,49,57,34,28202,-16205,-12552,922,1347
4958,32899,32909,120,88,900,-1423,53,51,29,28214,-16277,-12522,922,1348
4958,32922,32932,127,83,902,-639,48,51,37,28250,-16169,-12588,918,1349
4958,32945,32955,121,92,904,-1103,48,49,32,28214,-16181,-12750,925,1350
4958,32968,32978,124,96,905,-975,56,54,35,28035,-16026,-12474,923,1351
4958,32991,33001,128,94,898,-1199,60,52,43,28112,-16205,-12241,921,1352
4958,33014,33024,128,87,898,-1023,53,59,30,28094,-16079,-12373,923,1353
4958,33037,33047,125,95,898,-895,52,51,38,28178,-16079,-12510,922,1354
4958,33060,33069,117,79,896,-783,49,51,32,28160,-16115,-12307,920,1355
4958,33082,33092,123,100,907,-1071,52,50,35,28340,-16127,-12474,924,1356
4958,33105,33115,118,91,894,-863,53,58,38,28406,-16049,-12534,917,1357
4958,33134,33143,123,84,906,-671,51,51,40,28418,-16079,-12642,922,1358
4958,33156,33166,130,92,902,-1327,53,53,35,28394,-16163,-12606,918,1359
4958,33179,33189,121,78,901,-895,50,51,34,28280,-16247,-12468,918,1360
4958,33202,33212,129,89,901,-735,50,53,38,28220,-16079,-12456,920,1361
4958,33225,33235,125,85,908,-1343,51,53,36,28154,-16079,-12588,922,1362
4958,33248,33258,126,97,897,-1151,51,51,37,28226,-16109,-12402,919,1363
4958,33271,33281,123,93,900,-879,52,49,33,28166,-16008,-12349,918,1364
4958,33294,33303,124,83,906,-1343,53,51,34,28172,-16073,-12253,919,1365
4958,33316,33326,126,87,902,-543,50,56,35,28268,-16289,-12283,920,1366
4958,33339,33349,123,97,900,-543,56,53,40,28346,-16115,-12247,917,1367
4958,33362,33372,124,89,896,-607,46,50,43,28484,-16014,-12019,922,1368
4958,33385,33395,122,84,905,-655,53,54,38,28376,-16097,-11941,919,1369
4958,33408,33418,119,91,896,-671,57,54,40,28466,-16175,-12205,916,1370
4958,33436,33446,124,85,904,-911,50,52,36,28244,-16295,-11989,922,1371
4958,33459,33469,120,88,904,-1007,53,49,35,28322,-16217,-12301,923,1372
4958,33482,33492,126,89,902,-735,52,53,36,28238,-16091,-12331,922,1373
4958,33505,33514,119,91,904,-703,52,54,35,28184,-16073,-12504,922,1374
4958,33527,33537,123,93,902,-863,50,52,43,28238,-16026,-12229,924,1375
4958,33550,33560,132,93,896,-1071,50,53,35,28406,-15954,-12199,920,1376
4958,33573,33583,122,93,908,-751,52,52,36,28298,-15972,-12007,919,1377
4958,33596,33606,116,87,898,-1247,50,50,34,28382,-16020,-12157,920,1378
4958,33619,33629,125,89,898,-639,57,52,36,28029,-15978,-12486,922,1379
4958,33642,33652,129,91,904,-911,49,49,43,28244,-16043,-12199,918,1380
4958,33665,33675,115,87,896,-687,49,52,35,28160,-16073,-12235,926,1381
4958,33688,33697,126,86,907,-783,52,49,38,28286,-15966,-12319,913,1382
4958,33710,33720,118,88,909,-1039,50,50,37,28268,-15864,-12319,919,1383
4958,33733,33743,124,93,898,-591,52,57,38,28274,-15948,-12259,918,1384
4958,33762,33771,119,92,905,-751,59,51,36,28316,-16031,-12271,921,1385
4958,33785,33794,119,97,893,-831,53,51,40,28082,-15942,-12319,922,1386
4958,33807,33817,130,84,894,-1295,54,52,35,28238,-15822,-12420,919,1387
4958,33830,33840,131,87,901,-1023,59,50,42,28208,-16127,-12271,917,1388
4958,33853,33863,121,88,907,-959,53,53,33,28268,-16139,-12259,918,1389
4958,33876,33886,121,90,893,-271,51,56,34,28208,-16109,-12313,917,1390
4958,33899,33909,118,90,909,-687,54,54,41,28023,-15954,-12229,923,1391
4958,33922,33932,126,95,901,-863,53,49,43,28208,-16187,-12361,915,1392
4958,33945,33954,121,95,903,-623,53,49,38,28214,-16103,-12426,923,1393
4958,33967,33977,130,89,895,-1167,56,50,32,28244,-16127,-12492,923,1394
4958,33990,34000,126,78,899,-671,51,46,38,28304,-15942,-12516,921,1395
4958,34013,34023,116,90,903,-735,51,56,41,28154,-16049,-12648,920,1396
4958,34036,34046,126,84,904,-1359,59,49,28,28310,-16355,-12396,917,1397
4958,34059,34069,118,95,898,-719,53,51,37,28196,-16247,-12690,920,1398
4958,34087,34097,123,85,900,-879,53,50,34,28280,-16139,-12522,919,1399
4958,34110,34120,122,94,906,-879,50,51,37,28112,-16049,-12576,922,1400
4958,34133,34143,119,86,902,-911,53,46,35,28208,-16085,-12438,920,1401
4958,34156,34165,119,89,894,-495,58,51,38,28244,-16313,-12498,919,1402
4958,34179,34188,126,87,898,-655,54,51,41,28208,-16253,-12289,920,1403
4958,34201,34211,127,86,897,-943,53,46,36,28364,-16043,-12349,920,1404
4958,34224,34234,122,87,911,-1039,52,57,35,28214,-16205,-12516,921,1405
4958,34247,34257,119,90,909,-911,53,46,36,28364,-16091,-12498,923,1406
4958,34270,34280,123,91,905,-1087,54,58,43,28196,-15888,-12456,923,1407
4958,34293,34303,128,88,906,-607,48,54,35,28208,-16008,-12295,920,1408
4958,34316,34326,121,91,903,-1231,53,53,37,28166,-15954,-12414,921,1409
4958,34339,34348,117,93,902,-735,50,58,34,28058,-16127,-12414,917,1410
4958,34361,34371,125,83,896,-879,50,54,41,28160,-16014,-12510,922,1411
4958,34384,34394,125,93,903,-671,57,51,41,28052,-15864,-12343,917,1412
4958,34412,34422,124,90,900,-1055,51,48,34,28232,-16145,-12480,922,1413
4958,34435,34445,121,89,905,-1071,52,49,37,28334,-16026,-12205,922,1414
4958,34458,34468,123,94,907,-1071,52,46,36,28340,-16091,-12253,918,1415
4958,34481,34491,124,87,908,-383,45,50,41,28226,-16097,-12187,923,1416
4958,34504,34514,126,89,902,-1119,54,54,38,28214,-16055,-12343,917,1417
4958,34527,34536,126,89,904,-735,50,49,35,28136,-16163,-12522,920,1418
4958,34549,34559,119,89,900,-463,51,50,40,28190,-16127,-12594,922,1419
4958,34572,34582,124,86,900,-1215,54,48,38,28262,-16175,-12504,922,1420
4958,34595,34605,127,90,896,-911,52,53,38,28334,-16181,-12438,916,1421
4958,34618,34628,126,91,901,-1119,49,54,34,28172,-16049,-11109,921,1422
4958,34641,34651,121,93,891,-495,52,48,36,28268,-15966,-12450,924,1423
4958,34664,34674,132,87,904,-975,52,60,41,28094,-16079,-12756,928,1424
4958,34687,34696,117,89,904,-943,51,51,35,28292,-16163,-12624,919,1425
4958,34709,34719,121,79,904,-1071,53,52,36,28292,-16103,-12546,922,1426
4958,34737,34747,123,94,901,-1183,58,50,36,28238,-16055,-12516,921,1427
4958,34760,34770,127,92,909,-1391,57,53,38,28130,-16115,-12361,922,1428
4958,34783,34793,117,87,891,-1103,51,45,37,28196,-16043,-12367,919,1429
4958,34806,34816,119,85,902,-783,48,46,33,28250,-16085,-12378,920,1430
4958,34829,34839,120,95,900,-751,52,49,33,28250,-16097,-12654,919,1431
4958,34852,34861,126,91,906,-927,46,57,37,28394,-15966,-12726,924,1432
4958,34874,34884,121,89,906,-575,50,48,34,28352,-16139,-12833,922,1433
4958,34897,34907,126,93,909,-575,50,50,29,28400,-15960,-12450,920,1434
4958,34920,34930,122,80,908,-687,49,49,34,28232,-16097,-12552,919,1435
4958,34943,34953,120,92,899,-623,53,48,36,28226,-16127,-12361,920,1436
4958,34966,34976,126,95,899,-1039,56,56,38,28430,-15828,-11181,919,1437
4958,34989,34999,117,90,898,-1199,57,56,41,28406,-16079,-12618,922,1438
4958,35012,35021,126,99,901,-543,52,49,36,28340,-15846,-12522,921,1439
4958,35034,35044,121,91,891,-559,51,48,30,28382,-16008,-12313,921,1440
4958,35063,35072,124,87,904,-911,50,54,34,28478,-16055,-12444,920,1441
4958,35085,35095,116,91,903,-751,52,48,36,28609,-15864,-12337,921,1442
4958,35108,35118,118,96,900,-687,54,51,36,28262,-15888,-12474,916,1443
4958,35131,35141,127,97,898,-671,59,50,36,28352,-15930,-12606,920,1444
4958,35154,35164,117,95,902,-783,53,53,37,28382,-15960,-12414,920,1445
4958,35177,35187,122,91,914,-815,53,48,32,28490,-15858,-12426,921,1446
4958,35200,35209,123,89,909,-479,56,52,36,28316,-16049,-12480,923,1447
4958,35222,35232,121,85,902,-1055,52,51,35,28358,-15948,-12756,918,1448
4958,35245,35255,120,85,890,-735,54,49,33,28328,-16055,-12582,920,1449
4958,35268,35278,130,95,904,-767,51,53,42,28148,-15960,-12402,922,1450
4958,35291,35301,117,88,902,-735,51,48,30,28334,-15990,-12600,921,1451
4958,35314,35324,115,87,909,-895,51,53,38,28358,-16157,-12588,922,1452
4958,35337,35347,128,90,895,-863,49,44,35,28513,-16235,-12402,916,1453
4958,35373,35383,135,84,906,-927,49,51,42,28286,-16008,-12307,923,1454
4958,35396,35405,119,86,895,-1215,51,53,36,28322,-16151,-12564,920,1455
4958,35418,35428,119,91,896,-815,50,50,33,28382,-16115,-12343,921,1456
4958,35441,35451,122,92,900,-783,46,45,35,28328,-16133,-12373,917,1457
4958,35464,35474,123,91,894,-847,52,52,33,28448,-16205,-12570,919,1458
4958,35487,35497,126,88,892,-399,52,54,34,28424,-16199,-12588,921,1459
4958,35510,35519,118,89,908,-815,50,56,33,28208,-15870,-12456,922,1460
4958,35532,35542,121,89,907,-559,49,50,35,28112,-15984,-12702,920,1461
4958,35555,35565,123,95,909,-703,59,48,38,28364,-16211,-12510,921,1462
4958,35578,35588,116,98,907,-623,52,54,30,28226,-16115,-12504,919,1463
4958,35601,35611,122,86,912,-559,56,50,38,28507,-16031,-12582,922,1464
4958,35624,35634,123,98,906,-1455,57,48,35,28232,-16055,-12612,919,1465
4958,35647,35656,126,89,902,-575,54,56,38,28376,-16109,-12774,917,1466
4958,35669,35679,122,93,900,-847,51,51,33,28100,-16002,-12624,920,1467
4958,35698,35707,121,95,904,-1007,49,53,35,28220,-16055,-12690,922,1468
4958,35720,35730,119,90,900,-1055,52,48,30,28142,-16049,-12708,918,1469
4958,35743,35753,130,95,901,-735,45,54,34,28358,-16115,-12534,922,1470
4958,35766,35776,122,89,904,-735,51,54,40,28388,-15984,-12570,921,1471
4958,35789,35799,119,92,904,-639,52,52,37,28142,-16055,-12594,919,1472
4958,35811,35821,119,89,903,-607,50,53,40,28130,-16085,-12630,919,1473
4958,35834,35844,121,89,903,-799,50,52,32,28136,-15906,-12869,920,1474
4958,35857,35867,123,91,906,-767,51,48,33,28274,-16127,-12498,921,1475
4958,35880,35890,122,84,902,-879,49,53,38,28244,-16026,-12516,919,1476
4958,35903,35913,125,92,900,-1247,53,50,42,28208,-15882,-12319,920,1477
4958,35926,35935,132,95,909,-991,49,51,35,28082,-16103,-12798,919,1478
4958,35948,35958,126,93,908,-815,53,53,35,28118,-16103,-12504,921,1479
4958,35971,35981,128,93,899,-895,51,50,37,28196,-16079,-12349,918,1480
4958,35994,36004,116,88,899,-1343,49,52,36,28286,-16061,-12378,920,1481
4958,36022,36032,117,91,902,-719,50,49,40,28208,-15996,-12468,918,1482
4958,36045,36055,114,93,900,-1023,54,51,33,28256,-16043,-12373,921,1483
4958,36068,36078,118,91,900,-1103,54,56,42,28130,-16115,-12408,920,1484
4958,36091,36100,119,82,901,-1007,56,51,43,28214,-16295,-12402,923,1485
4958,36113,36123,129,95,900,-991,57,52,36,28328,-16181,-12420,922,1486
4958,36136,36146,124,90,898,-415,45,53,33,28286,-16205,-12504,919,1487
4958,36190,36200,118,86,902,-911,50,52,37,28154,-16073,-12690,921,1488
4958,36213,36223,130,95,910,-671,46,50,36,28430,-15900,-12295,916,1489
4958,36236,36246,121,101,896,-719,48,49,36,28035,-15996,-12570,918,1490
4958,36259,36269,121,90,908,-1023,49,50,35,28190,-16020,-12480,920,1491
4958,36282,36291,128,90,899,-623,49,52,37,28220,-16067,-12378,921,1492
4958,36304,36314,126,91,909,-911,51,48,41,28082,-16073,-12558,925,1493
4958,36327,36337,121,87,892,-447,53,50,41,28274,-16133,-12319,920,1494
4958,36350,36360,127,84,898,-735,53,54,38,28286,-16247,-12133,920,1495
4958,36378,36388,125,90,911,-703,51,52,33,28220,-16163,-12432,919,1496
4958,36401,36411,128,91,890,-703,51,51,27,28011,-16169,-12522,921,1497
4958,36424,36434,117,90,900,-751,52,52,37,28202,-16163,-12570,922,1498
4958,36447,36456,113,90,893,-831,48,52,36,28304,-16187,-12259,922,1499
4958,36469,36479,113,91,907,-751,49,50,33,28178,-16175,-12319,915,1500
4958,36492,36502,121,88,893,-799,53,51,38,28232,-16289,-12432,918,1501
4958,36515,36525,118,100,902,-975,53,46,34,28340,-16349,-12343,916,1502
4958,36538,36548,122,89,899,-1103,52,51,35,28232,-16367,-12468,914,1503
4958,36561,36570,119,89,906,-255,56,52,34,28280,-16121,-12492,921,1504
4958,36583,36593,126,103,904,-847,54,51,32,28376,-16163,-12666,918,1505
4958,36606,36616,123,87,897,-1119,56,50,36,28478,-16199,-12600,922,1506
4958,36629,36639,132,91,898,-1471,50,53,43,28292,-16127,-12528,924,1507
4958,36652,36662,122,91,905,-719,51,50,40,28490,-16157,-12331,920,1508
4958,36674,36684,117,89,906,-927,52,50,38,28286,-16151,-12486,921,1509
4958,36703,36712,121,92,911,-847,54,56,40,28298,-16157,-12780,923,1510
4958,36725,36735,122,93,906,-1103,50,46,36,28280,-16085,-12708,919,1511
4958,36748,36758,124,94,902,-783,49,45,38,28316,-15990,-12486,922,1512
4958,36771,36781,125,93,896,-815,56,50,41,28262,-16049,-12307,918,1513
4958,36794,36804,119,90,904,-751,50,51,33,28124,-16097,-12301,919,1514
4958,36817,36826,115,90,895,-655,44,48,36,28442,-16103,-12361,919,1515
4958,36839,36849,123,89,905,-1279,54,50,28,28346,-16020,-12432,923,1516
4958,36862,36872,128,86,906,-703,52,57,36,28286,-15870,-12528,922,1517
4958,36885,36895,126,89,902,-1183,53,51,38,28280,-15876,-12618,919,1518
4958,36908,36918,124,96,900,-607,54,59,46,28250,-16139,-12642,923,1519
4958,36931,36940,119,85,900,-543,52,52,43,28202,-16133,-12576,920,1520
4958,36953,36963,117,94,898,-991,54,49,38,28154,-16169,-12636,921,1521
4958,36976,36986,113,87,907,-1311,49,48,34,28304,-15996,-12851,924,1522
4958,36999,37009,121,96,899,-831,49,48,37,28394,-16091,-12492,919,1523
4958,37027,37037,130,87,896,-527,49,46,32,28406,-16205,-12744,917,1524
4958,37050,37060,127,90,904,-687,53,51,38,28358,-16055,-12726,922,1525
4958,37073,37082,121,96,905,-895,48,50,34,28172,-16199,-12648,921,1526
4958,37095,37105,130,95,895,-975,58,52,36,28328,-15966,-12708,920,1527
4958,37118,37128,127,92,900,-1071,50,54,36,28286,-15996,-12594,922,1528
4958,37141,37151,123,96,906,-815,56,48,38,28328,-15966,-12534,922,1529
4958,37164,37174,123,90,900,-1055,54,53,42,28286,-16002,-12756,922,1530
4958,37187,37196,124,91,906,-1071,52,51,34,28388,-16199,-12564,916,1531
4958,37209,37219,119,91,903,-831,48,56,35,28250,-15996,-12528,921,1532
4958,37232,37242,117,95,909,-1071,49,58,37,28220,-16085,-12361,923,1533
4958,37255,37265,120,85,897,-511,59,48,33,28298,-16049,-12432,919,1534
4958,37278,37288,124,87,902,-639,53,50,35,28190,-16127,-12857,922,1535
4958,37301,37310,123,94,901,-1247,51,44,41,28172,-16241,-12504,920,1536
4958,37323,37333,122,84,905,-1231,52,46,37,28148,-16181,-12384,919,1537
4958,37345,37355,119,87,908,-831,53,50,42,28268,-16115,-12235,921,1538
4958,37368,37377,119,84,905,-703,56,49,33,28190,-16217,-12552,921,1539
4958,37390,37400,127,96,906,-639,50,48,35,28238,-16061,-12432,920,1540
4958,37413,37423,116,95,900,-943,51,49,35,28370,-16175,-12833,922,1541
4958,37436,37446,126,90,901,-767,52,53,30,28232,-15876,-12504,927,1542
4958,37459,37469,125,95,904,-719,52,51,34,28244,-16014,-12810,921,1543
4958,37482,37491,129,85,902,-1199,50,52,34,28154,-16014,-12265,920,1544
4958,37504,37514,121,97,904,-959,48,52,33,28100,-16133,-12648,920,1545
4958,37527,37537,125,87,902,-1151,54,51,36,28196,-16055,-12408,921,1546
4958,37550,37560,123,85,903,-1167,50,54,34,28292,-15816,-12492,924,1547
4958,37573,37583,119,85,900,-815,57,53,37,28196,-15768,-12373,919,1548
4958,37596,37605,127,88,899,-847,56,48,35,27999,-16049,-12696,922,1549
4958,37618,37628,118,89,895,-767,51,50,32,28082,-15954,-12456,919,1550
4958,37647,37656,123,90,908,-815,50,51,33,28292,-16223,-12402,921,1551
4958,37669,37679,121,86,900,-943,51,50,34,28238,-16265,-12289,920,1552
4958,37692,37702,129,89,907,-719,51,56,38,28148,-16133,-12133,916,1553
4958,37715,37725,123,86,904,-911,53,50,38,28214,-15978,-12390,923,1554
4958,37738,37747,122,95,908,-911,52,56,34,28214,-15828,-12253,918,1555
4958,37760,37770,117,87,902,-799,57,52,33,28202,-16049,-12331,921,1556
4958,37783,37793,119,87,903,-623,50,50,36,28244,-16061,-12253,918,1557
4958,37806,37816,124,84,893,-815,51,48,32,28178,-16193,-12642,921,1558
4958,37829,37839,125,90,901,-847,53,56,35,28136,-15930,-12690,920,1559
4958,37852,37862,126,95,909,-671,48,53,40,28130,-16157,-12660,919,1560
4958,37875,37884,129,88,911,-559,51,58,37,28364,-16157,-12612,919,1561
4958,37897,37907,120,92,895,-959,51,59,38,28406,-16109,-12432,921,1562
4958,37920,37930,124,86,907,-783,53,54,34,28340,-15960,-12331,917,1563
4958,37943,37953,115,92,904,-591,49,48,38,28621,-16020,-12289,918,1564
4958,37971,37981,126,95,902,-671,54,53,40,28460,-16259,-12528,920,1565
4958,37994,38004,127,88,902,-479,49,53,35,28340,-16008,-12678,918,1566
4958,38017,38027,123,91,907,-735,52,56,34,28322,-16079,-12367,927,1567
4958,38039,38049,126,83,902,-1023,50,51,35,28262,-15984,-12624,918,1568
4958,38062,38072,121,82,905,-543,58,51,37,28340,-16103,-12367,919,1569
4958,38085,38095,123,93,905,-1279,54,45,37,28286,-16109,-12774,920,1570
4958,38108,38118,128,85,909,-831,53,50,38,28280,-16043,-12528,924,1571
4958,38131,38141,120,87,901,-639,52,45,38,28106,-16121,-12480,921,1572
4958,38154,38163,122,88,893,-1039,54,58,40,28274,-16067,-12367,918,1573
4958,38176,38186,117,89,902,-959,48,49,33,28094,-15990,-12564,919,1574
4958,38199,38209,123,89,902,-543,50,52,41,28088,-16169,-12696,922,1575
4958,38229,38239,121,95,910,-1119,51,51,37,28226,-16061,-12929,922,1576
4958,38252,38262,123,90,899,-751,56,48,34,28376,-16139,-12456,918,1577
4958,38275,38285,119,87,900,-863,49,45,42,28112,-16157,-12732,921,1578
4958,38303,38313,121,88,899,-815,49,52,36,28346,-16008,-12474,922,1579
4958,38326,38336,122,92,900,-799,50,57,35,28364,-16133,-12510,921,1580
4958,38349,38359,117,97,912,-623,50,51,36,28244,-16265,-12594,920,1581
4958,38371,38381,119,92,904,-511,56,53,36,28382,-15888,-12444,920,1582
4958,38394,38404,125,93,896,-1103,58,50,37,28244,-15954,-12408,920,1583
4958,38417,38427,126,89,902,-607,56,53,37,28184,-16181,-12343,921,1584
4958,38440,38450,122,98,906,-1007,49,50,34,28268,-16079,-12600,922,1585
4958,38463,38472,122,87,902,-799,54,59,40,28358,-15810,-12714,924,1586
4958,38485,38495,115,92,893,-799,51,53,35,28328,-15918,-12696,922,1587
4958,38508,38518,126,90,906,-607,56,48,36,28376,-15924,-12576,919,1588
4958,38531,38541,121,91,893,-943,59,58,37,28274,-16008,-12624,920,1589
4958,38554,38563,126,89,901,-911,50,48,37,28328,-16049,-12480,917,1590
4958,38576,38586,111,93,896,-975,51,52,36,28280,-16085,-12588,922,1591
4958,38599,38609,121,89,899,-847,59,59,38,28256,-16073,-12708,920,1592
4958,38627,38637,122,90,897,-1023,51,52,36,28370,-15882,-13055,917,1593
4958,38650,38660,127,93,905,-351,53,51,30,28304,-15972,-12630,920,1594
4958,38673,38683,122,83,889,-895,54,53,34,28358,-16031,-12768,921,1595
4958,38695,38705,123,86,908,-303,51,54,38,28340,-16091,-12696,920,1596
4958,38718,38728,125,96,901,-1039,53,53,35,28352,-15822,-12594,919,1597
4958,38741,38751,126,86,906,-575,52,51,35,28430,-16091,-12630,922,1598
4958,38764,38774,122,91,896,-655,50,57,36,28370,-15942,-12899,914,1599
4958,38787,38796,127,87,897,-1071,48,51,30,28220,-15888,-12576,923,1600
4958,38809,38819,123,92,903,-271,58,50,43,28274,-16031,-12307,919,1601
4958,38832,38842,120,87,902,-895,57,48,35,28328,-15948,-12414,923,1602
4958,38855,38865,121,95,891,-1103,53,56,40,28214,-15984,-12295,924,1603
4958,38878,38888,117,87,900,-735,45,54,33,28334,-15864,-12007,916,1604
4958,38901,38910,117,86,904,-623,49,48,33,28226,-15786,-12373,923,1605
4958,38923,38933,130,91,901,-1023,54,52,40,28346,-15852,-12438,924,1606
4958,38952,38961,123,89,905,-527,50,43,38,28178,-15900,-12408,917,1607
4958,38974,38984,123,89,902,-671,53,48,36,28232,-16055,-12498,918,1608
4958,38997,39007,120,92,900,-927,51,53,37,28178,-15846,-12349,922,1609
4958,39020,39030,131,92,912,-607,53,48,40,28214,-16020,-12624,923,1610
4958,39043,39052,123,91,904,-671,54,48,42,28298,-15900,-12367,922,1611
4958,39065,39075,130,97,898,-591,53,48,32,28172,-15900,-12420,922,1612
4958,39088,39098,121,84,900,-543,52,51,32,28172,-15750,-12594,920,1613
4958,39111,39121,132,89,902,-815,53,51,37,28196,-15744,-12528,922,1614
4958,39134,39144,110,91,898,-1199,50,51,33,28118,-15768,-12726,923,1615
4958,39156,39166,126,91,897,-799,48,51,41,28400,-15870,-12313,922,1616
4958,39179,39189,123,96,902,-959,50,48,34,28112,-15846,-12618,923,1617
4958,39202,39212,120,87,900,-703,53,53,33,28154,-15828,-12726,917,1618
4958,39225,39235,121,91,893,-703,52,52,37,28202,-15720,-12546,921,1619
4958,39248,39257,126,89,905,-1007,58,50,38,28334,-15924,-12588,923,1620
4958,39276,39286,118,84,910,-1135,52,49,36,28298,-15858,-12187,920,1621
4958,39298,39308,128,91,906,-751,51,52,41,28220,-15852,-12510,918,1622
4958,39321,39331,121,91,897,-495,51,53,37,28352,-15696,-12462,922,1623
4958,39344,39354,119,89,906,-895,54,50,36,28382,-15894,-12432,920,1624
4958,39367,39377,121,81,904,-1231,53,48,37,28220,-15858,-12606,921,1625
4958,39390,39399,126,80,906,-1023,52,48,41,28214,-15906,-12337,921,1626
4958,39412,39422,119,95,902,-943,50,48,34,28226,-15840,-12073,920,1627
4958,39435,39445,115,95,896,-1231,48,51,34,28328,-15918,-12229,922,1628
4958,39458,39468,113,89,907,-511,52,52,36,28274,-15870,-12438,923,1629
4958,39481,39490,120,88,905,-911,56,53,37,28358,-15990,-12307,918,1630
4958,39503,39513,126,91,904,-767,58,53,40,28316,-15990,-12384,922,1631
4958,39526,39536,127,94,901,-655,48,50,36,28286,-16067,-12432,919,1632
4958,39549,39559,121,99,901,-559,53,50,41,28364,-16061,-12109,922,1633
4958,39577,39587,120,91,906,-1343,54,54,35,28280,-15924,-12504,920,1634
4958,39600,39609,117,84,906,-719,52,50,37,28220,-15804,-12408,919,1635
4958,39622,39632,120,91,908,-895,53,52,35,28076,-15924,-12438,920,1636
4958,39645,39655,117,97,902,-639,52,52,37,28196,-15906,-12349,919,1637
4958,39668,39678,130,89,906,-1151,53,52,37,28154,-16008,-12642,922,1638
4958,39691,39701,121,95,900,-655,51,48,35,28214,-15936,-12486,916,1639
4958,39713,39723,122,85,902,-911,54,52,35,28154,-15852,-12636,918,1640
4958,39736,39746,115,89,904,-847,54,50,34,28190,-15822,-12205,921,1641
4958,39759,39769,119,90,893,-1007,48,54,42,28400,-15834,-12875,919,1642
4958,39782,39792,122,87,893,-527,59,48,33,28322,-16247,-12708,922,1643
4958,39805,39815,121,82,905,-735,51,50,32,28310,-16026,-12798,920,1644
4958,39827,39837,124,88,904,-927,53,51,41,28244,-15948,-12480,920,1645
4958,39850,39860,128,86,898,-1039,51,54,38,28166,-15996,-12690,919,1646
4958,39873,39883,133,95,904,-735,54,48,38,28226,-16002,-12732,922,1647
4958,39901,39911,117,87,898,-1151,56,49,37,28424,-15906,-12582,921,1648
4958,39924,39933,120,96,901,-719,56,53,37,28280,-15810,-12444,919,1649
4958,39946,39956,126,86,897,-1039,50,50,40,28250,-15906,-12480,917,1650
4958,39969,39979,119,94,903,-1103,50,51,33,28484,-15984,-12516,922,1651
4958,39992,40002,126,91,900,-655,48,51,38,28280,-15954,-11103,920,1652
4958,40015,40024,126,96,906,-1279,49,50,34,28166,-15972,-12432,920,1653
4958,40037,40047,121,95,900,-735,48,53,35,28196,-16211,-12552,922,1654
4958,40060,40070,123,91,900,-975,50,52,37,28214,-15762,-12600,918,1655
4958,40083,40093,124,89,906,-863,49,48,36,28160,-16079,-12319,920,1656
4958,40106,40116,123,88,900,-1295,53,54,36,28154,-15858,-12384,921,1657
4958,40128,40138,127,88,904,-687,50,51,38,28400,-15864,-12516,921,1658
4958,40151,40161,128,89,904,-1247,52,52,38,28250,-15822,-12738,923,1659
4958,40174,40184,129,91,898,-831,50,52,37,28112,-15966,-12600,917,1660
4958,40197,40207,130,92,902,-367,49,53,34,28208,-15978,-12720,922,1661
4958,40225,40235,122,91,906,-847,52,50,36,28100,-16037,-12666,923,1662
4958,40247,40257,122,87,898,-991,53,53,36,28118,-16091,-12696,922,1663
4958,40270,40280,121,82,903,-1119,53,51,36,28023,-16223,-12510,922,1664
4958,40293,40303,115,89,905,-863,51,51,34,28094,-16265,-12744,921,1665
4958,40316,40326,129,90,903,-735,48,49,28,28154,-15990,-12331,922,1666
4958,40339,40348,123,91,902,-1327,51,49,34,28280,-16002,-12247,921,1667
4958,40361,40371,128,90,899,-1135,52,48,37,28214,-15936,-12486,916,1668
4958,40384,40394,127,89,901,-1215,52,50,34,28190,-15924,-12432,919,1669
4958,40407,40417,118,85,899,-767,49,49,37,28154,-15942,-12498,920,1670
4958,40430,40440,124,87,900,-1167,48,59,34,28106,-15966,-12720,919,1671
4958,40453,40462,125,96,904,-751,50,51,35,28286,-15978,-12444,921,1672
4958,40475,40485,123,93,894,-687,51,50,34,27999,-15924,-12690,922,1673
4958,40498,40508,124,92,895,-1071,52,54,34,28142,-15906,-12660,919,1674
4958,40521,40531,117,91,899,-927,50,51,33,28070,-15948,-12241,916,1675
4958,40549,40559,124,85,898,-1215,52,49,33,28064,-15876,-12678,921,1676
4958,40572,40581,120,89,898,-1007,51,51,34,28047,-15918,-12744,922,1677
4958,40594,40604,126,92,904,-655,52,51,36,28118,-16067,-12552,927,1678
4958,40617,40627,122,89,906,-1103,49,51,36,28017,-15978,-12881,917,1679
4958,40640,40650,121,87,902,-383,52,52,37,28124,-16020,-12744,922,1680
4958,40663,40673,123,91,911,-815,52,54,35,28058,-15912,-12564,917,1681
4958,40686,40695,121,93,904,-1039,48,46,35,27867,-16014,-12510,920,1682
4958,40708,40718,128,93,890,-735,50,45,35,27795,-15948,-12708,923,1683
4958,40731,40741,122,89,902,-1039,56,45,33,27951,-15828,-12307,922,1684
4958,40754,40764,122,97,893,-591,53,56,40,28100,-15936,-12444,921,1685
4958,40777,40786,122,85,901,-1375,48,48,33,27885,-15894,-12444,921,1686
4958,40799,40809,127,92,898,-927,56,49,33,28041,-15858,-12618,918,1687
4958,40822,40832,124,87,899,-719,53,51,35,27939,-15936,-12600,922,1688
4958,40845,40855,121,90,904,-687,52,51,33,27975,-16037,-12492,921,1689
4958,40873,40883,117,94,908,-943,54,51,35,27921,-16187,-12468,920,1690
4958,40896,40906,116,87,909,-847,49,49,33,28052,-15972,-12612,919,1691
4958,40919,40928,128,84,906,-1263,52,50,37,28076,-16127,-12672,922,1692
4958,40941,40951,126,95,900,-1103,54,52,33,28172,-15846,-12468,921,1693
4958,40964,40974,126,94,899,-1103,49,50,30,28058,-15924,-12462,921,1694
4958,40987,40997,119,89,912,-1071,53,52,38,28088,-16205,-12349,920,1695
4958,41010,41019,121,97,893,-1391,56,51,34,28005,-16037,-12049,921,1696
4958,41040,41050,122,90,907,-671,45,52,36,28047,-16187,-12498,917,1697
4958,41063,41072,118,91,911,-575,52,57,38,27963,-15966,-12325,919,1698
4958,41085,41095,127,86,901,-1007,48,45,33,28058,-15936,-12474,921,1699
4958,41108,41118,124,88,902,-687,52,45,33,28256,-15990,-12474,924,1700
4958,41131,41141,119,83,900,-943,48,44,36,28076,-15996,-12217,915,1701
