count,tInitial,tFinal,accel_x,accel_y,accel_z,accel_high,gyro_x,gyro_y,gyro_z,mag_x,mag_y,mag_z,temp
0,1281,1290,34,-17,896,47,194,-815,108,12122,31820,-21885,2247
1,1391,1401,32,-19,903,-191,193,-814,112,12278,31958,-22616,2013
2,1414,1423,41,-21,896,143,197,-818,108,12302,31730,-22250,1977
3,1436,1446,30,-23,893,-79,195,-817,107,12260,31844,-22466,1953
4,1459,1469,36,-22,897,511,204,-821,105,12224,31952,-22137,1921
5,1482,1492,32,-21,887,191,196,-820,110,12284,31886,-22448,1907
6,1505,1514,41,-20,903,47,201,-814,106,12320,32012,-22059,1894
7,1527,1537,33,-23,904,-287,195,-814,112,12015,31838,-22298,1864
8,1550,1560,31,-17,895,143,194,-815,107,12266,31910,-22490,1857
9,1573,1583,33,-28,898,-63,200,-820,109,12026,31922,-22184,1853
10,1595,1605,39,-26,908,47,200,-817,107,12152,31700,-22214,1841
11,1618,1628,33,-19,900,-95,192,-815,109,12158,31641,-22083,1835
12,1641,1651,39,-19,904,239,194,-825,110,12242,31659,-22256,1839
13,1664,1674,37,-18,902,271,193,-818,108,12164,31766,-22190,1814
14,1712,1722,37,-20,897,-31,203,-816,110,12068,31760,-22172,1764
15,1735,1745,42,-23,903,127,192,-816,106,12392,31527,-22113,1775
16,1768,1778,42,-32,911,-143,200,-822,101,12188,31712,-22436,1756
17,1791,1801,23,-31,906,479,200,-820,104,12332,31814,-22053,1763
18,1814,1824,35,-32,913,111,196,-818,112,12362,31856,-22196,1762
19,1837,1847,37,-12,914,143,205,-813,112,12440,31802,-22047,1774
20,1860,1870,42,-19,911,-175,201,-813,105,12182,31742,-22053,1784
21,1883,1893,44,-24,910,-95,197,-815,105,12188,31940,-21843,1768
22,1906,1916,35,-18,911,207,200,-815,105,12302,31964,-21987,1779
23,1929,1938,38,-26,915,223,202,-830,110,12440,31790,-22250,1780
24,1952,1961,39,-14,914,127,199,-816,112,12362,31946,-22232,1777
25,1974,1984,39,-15,905,-335,193,-821,104,12284,31928,-22274,1780
26,1997,2007,30,-25,907,-111,196,-820,109,12679,31808,-22083,1774
27,2020,2030,36,-21,906,223,200,-818,107,12290,31850,-22089,1779
28,2070,2080,43,-25,909,-63,197,-818,109,12469,31916,-22101,1737
29,2093,2102,35,-19,908,207,203,-813,112,12428,31856,-22172,1735
30,2115,2125,37,-19,912,47,199,-816,113,12212,31659,-22250,1742
31,2138,2148,30,-13,912,-159,199,-824,107,12392,31820,-22232,1754
32,2161,2171,32,-19,911,111,191,-817,110,12302,31856,-22214,1749
33,2184,2194,37,-15,908,95,196,-818,108,12224,31898,-22268,1759
34,2206,2216,36,-25,911,0,197,-825,108,12212,32006,-22202,1762
35,2229,2239,45,-23,911,63,199,-816,106,12248,31796,-22089,1760
36,2252,2262,36,-16,911,-191,204,-812,109,12308,31898,-21999,1773
37,2275,2285,36,-26,904,255,199,-818,110,12290,31736,-22149,1763
38,2298,2307,34,-17,913,-495,196,-821,109,12164,31748,-22406,1761
39,2320,2330,36,-20,907,207,195,-813,108,12254,31665,-22167,1773
40,2343,2353,35,-26,913,-207,203,-827,109,12248,31772,-22238,1770
41,2366,2376,35,-17,917,-527,201,-820,108,12164,31814,-22376,1767
42,2392,2402,30,-25,913,287,201,-818,107,12260,31605,-22107,1766
43,2415,2425,34,-17,918,-367,194,-821,112,12146,31760,-22478,1759
44,2438,2448,39,-19,909,175,200,-823,106,12272,31904,-22400,1770
45,2461,2470,34,-23,911,175,197,-812,109,12104,31629,-22190,1762
46,2483,2493,33,-17,914,175,204,-820,107,11979,31904,-22400,1767
47,2506,2516,34,-28,918,191,194,-816,112,12194,31689,-22167,1769
48,2529,2539,31,-17,917,-143,199,-814,112,12158,31695,-22167,1762
49,2552,2562,39,-21,914,415,197,-816,109,12152,31772,-22059,1762
50,2575,2584,39,-19,917,223,195,-820,106,11877,31778,-22143,1770
51,2597,2607,37,-17,915,-47,201,-815,107,12068,31826,-22316,1761
52,2620,2630,35,-19,920,-175,196,-824,108,12218,31808,-22292,1768
53,2643,2653,41,-21,920,239,195,-815,109,12110,31748,-22286,1764
54,2666,2675,36,-20,909,-175,196,-818,107,12224,31796,-22382,1757
55,2688,2698,32,-17,920,-271,200,-815,102,12356,31695,-22119,1767
56,2715,2725,38,-23,914,175,197,-820,109,12104,31838,-22304,1752
57,2737,2747,34,-23,913,15,201,-814,107,12290,31964,-22137,1759
58,2760,2770,35,-22,909,223,197,-818,106,12080,32060,-22131,1764
59,2783,2793,40,-26,916,287,192,-823,107,12140,31976,-22190,1754
60,2806,2816,45,-25,911,-15,194,-816,106,12050,31970,-22047,1764
61,2828,2838,30,-25,920,-351,195,-815,104,12152,32060,-22059,1755
62,2851,2861,32,-21,913,95,200,-816,107,12182,31844,-22232,1754
63,2874,2884,38,-28,913,-223,194,-818,108,12044,31772,-21951,1766
64,2897,2907,41,-23,922,63,203,-817,113,12074,31838,-22196,1753
65,2920,2929,45,-17,927,319,196,-821,108,12098,31928,-22424,1764
66,2942,2952,30,-27,914,79,203,-820,106,12158,31946,-22382,1762
67,2965,2975,37,-29,920,191,195,-817,107,12188,31880,-22244,1752
68,2988,2998,36,-16,915,-95,201,-814,108,12104,31886,-22526,1758
69,3010,3020,430,-165,2244,-143,-1810,5100,6855,12104,32167,-22412,1756
70,3037,3047,38,-26,915,255,219,-581,-197,12068,32066,-22532,1751
71,3060,3069,33,-23,919,-47,156,-356,-169,12206,32132,-22172,1746
72,3082,3092,33,-20,912,-95,112,-163,-144,11997,31886,-22125,1750
73,3105,3115,36,-21,928,159,75,-30,-131,12050,31838,-22137,1763
74,3128,3138,34,-18,917,79,52,94,-99,12194,32024,-22262,1745
75,3151,3160,45,-11,917,0,25,185,-100,12158,32054,-22131,1753
76,3173,3183,36,-22,912,-191,11,240,-107,12242,31850,-22029,1754
77,3196,3206,37,-15,914,-79,1,281,-105,12003,31988,-22035,1760
78,3219,3229,49,-3,919,-111,-11,308,-96,12164,32078,-22268,1767
79,3242,3251,56,-1,900,-95,-8,327,-89,12086,31940,-22101,1754
80,3264,3274,66,0,886,575,-12,331,-88,12152,31683,-22400,1744
81,3287,3297,39,-17,926,191,-12,331,-85,12206,31880,-22262,1754
82,3310,3320,19,-32,928,-191,-6,329,-85,12146,32191,-22107,1748
83,3333,3342,11,-36,949,399,-4,319,-82,11961,32114,-22616,1762
84,3372,3381,29,-24,946,-175,-17,300,-84,12194,32012,-22412,1723
85,3394,3404,13,-37,952,415,-1,293,-82,12098,32149,-22352,1718
86,3417,3427,21,-34,935,0,-2,281,-73,12188,32000,-21987,1732
87,3440,3450,54,-8,896,-415,-13,268,-73,12050,32149,-22196,1742
88,3463,3472,46,-6,882,15,-2,256,-65,12224,31904,-22095,1736
89,3485,3495,52,-14,916,-111,3,237,-60,12326,32066,-22149,1747
90,3508,3518,15,-39,946,175,5,225,-58,12212,32221,-22256,1745
91,3531,3541,36,-26,956,351,11,213,-48,12038,32048,-22478,1744
92,3554,3563,34,-34,925,-63,10,200,-44,12092,32144,-22334,1754
93,3576,3586,60,0,892,-143,14,185,-38,12146,32030,-22328,1746
94,3599,3609,31,-29,899,31,13,169,-40,12038,32024,-22286,1743
95,3622,3632,16,-40,948,335,24,157,-33,12200,32090,-22610,1745
96,3645,3654,31,-28,935,287,22,153,-28,11973,32072,-22155,1745
97,3671,3681,52,-4,890,-143,24,130,-37,12188,32042,-22298,1738
98,3693,3703,21,-28,954,207,22,116,-35,12146,31982,-22047,1735
99,3716,3726,33,-36,946,63,33,110,-33,12152,31970,-22172,1744
100,3739,3749,47,-19,907,223,27,96,-40,12272,32096,-22256,1749
101,3762,3772,54,0,900,159,32,74,-41,12080,31976,-22478,1743
102,3784,3794,16,-39,920,31,32,68,-41,12170,31976,-22364,1744
103,3807,3817,17,-42,935,511,35,53,-38,12260,31964,-22202,1744
104,3830,3840,55,-2,886,31,46,44,-45,12230,31994,-22071,1737
105,3853,3862,39,-25,929,239,36,41,-56,11937,32006,-22089,1746
106,3875,3885,15,-44,952,-111,37,49,-44,12224,31976,-22256,1748
107,3898,3908,45,-24,915,-47,42,44,-46,12146,32048,-22184,1748
108,3921,3931,52,-7,896,0,36,43,-53,12122,32018,-22214,1752
109,3944,3953,25,-15,917,-335,40,37,-54,11931,32018,-22131,1738
110,3966,3976,20,-42,942,-383,44,40,-51,11763,31994,-22322,1746
111,3993,4002,55,0,900,-287,41,46,-53,12242,32030,-22406,1738
112,4016,4025,10,-36,966,399,45,46,-52,11931,31970,-22352,1738
113,4038,4048,51,-41,933,47,45,44,-46,11865,31820,-22370,1744
114,4061,4071,58,-2,886,303,38,48,-54,11775,32102,-22376,1738
115,4084,4094,17,-39,946,-303,43,44,-51,12104,32209,-22131,1736
116,4107,4117,7,-47,964,303,44,46,-45,11823,32000,-22125,1745
117,4130,4139,53,-8,903,-111,40,51,-46,11925,31970,-22220,1739
118,4152,4162,34,-17,879,15,41,50,-49,12038,32018,-22065,1753
119,4175,4185,10,-37,944,15,45,48,-49,12003,32042,-22526,1741
120,4205,4215,41,-21,919,-175,42,38,-49,11847,31952,-22424,1730
121,4228,4238,19,-42,952,-111,44,48,-45,11883,32018,-22041,1723
122,4251,4261,50,-28,917,143,38,49,-49,11895,31928,-22178,1726
123,4274,4283,53,-2,898,-207,41,44,-53,11871,31988,-22220,1745
124,4296,4306,15,-25,933,511,42,42,-53,12003,32090,-22125,1730
125,4331,4341,28,-16,893,-95,37,46,-52,11955,31952,-22400,1707
126,4354,4364,22,-41,956,223,42,46,-51,12134,32006,-22101,1714
127,4377,4387,57,-18,906,207,43,45,-44,12140,32036,-22256,1721
128,4400,4410,60,-4,887,367,41,40,-48,12170,32108,-22190,1719
129,4423,4433,22,-45,954,-79,49,45,-56,12188,31988,-22125,1739
130,4446,4455,39,-46,958,-95,46,44,-43,12218,31970,-22250,1726
131,4469,4478,60,-8,889,527,37,42,-52,12116,32054,-22220,1732
132,4491,4501,20,-4,895,207,38,41,-53,12200,31952,-22400,1735
133,4514,4524,9,-48,965,335,44,44,-43,12158,31904,-22376,1725
134,4537,4547,46,-4,932,127,41,45,-49,12110,31928,-22167,1740
135,4560,4570,54,-2,893,-63,41,43,-50,11997,32054,-22322,1728
136,4583,4593,8,-50,937,191,44,38,-44,12092,31814,-22556,1738
137,4606,4616,22,-28,936,431,48,54,-44,12194,31856,-22286,1732
138,4629,4639,59,-1,888,287,34,44,-51,12146,32054,-22310,1732
139,4657,4667,41,-7,912,735,38,48,-53,12176,31874,-22262,1726
140,4680,4690,21,-54,946,127,46,51,-43,11973,32096,-22172,1717
141,4703,4712,52,-11,913,-31,44,42,-46,12032,31898,-22568,1727
142,4725,4735,35,-17,918,-335,40,46,-49,12158,32066,-22196,1735
143,4748,4758,28,-50,957,-191,38,43,-51,12021,31934,-22358,1727
144,4771,4781,56,-4,903,-111,45,46,-52,11955,31784,-22508,1733
145,4794,4804,27,156,896,63,36,49,-50,12062,32108,-22508,1732
146,4817,4827,5,-43,963,543,49,44,-46,12026,31970,-22358,1730
147,4840,4850,63,-4,941,383,41,44,-52,12074,32024,-22214,1747
148,4863,4873,55,-7,893,-79,46,45,-48,11967,32060,-22436,1723
149,4886,4895,9,-41,959,367,43,46,-44,11721,32173,-22616,1740
150,4908,4918,44,-23,906,-255,43,45,-51,11949,32018,-22538,1736
151,4931,4941,33,-15,922,255,36,37,-49,12050,32096,-22586,1731
152,4954,4964,31,-44,958,95,40,45,-51,11925,31976,-22328,1740
153,4982,4992,56,0,901,-47,40,49,-46,11919,31964,-22592,1720
154,5005,5015,41,-10,920,143,44,42,-50,12176,31934,-22394,1725
155,5028,5038,39,-27,920,575,37,48,-43,12128,32090,-22184,1721
156,5051,5061,36,-26,931,-47,46,45,-49,12206,32191,-22520,1729
157,5074,5084,40,-15,929,-47,43,46,-53,12164,32179,-22556,1731
158,5097,5106,36,-13,922,-79,42,43,-50,11979,31886,-22472,1729
159,5119,5129,45,-23,924,351,42,45,-48,11793,32036,-22502,1737
160,5142,5152,32,-23,922,-159,36,46,-45,11853,31844,-22484,1737
161,5165,5175,35,-24,921,0,46,48,-48,11949,32030,-22358,1726
162,5188,5198,35,-17,913,-255,42,44,-48,11907,32006,-22496,1727
163,5211,5221,37,-23,926,415,45,43,-48,11727,32114,-22448,1725
164,5234,5244,35,-20,914,-239,38,46,-49,12015,32120,-22298,1731
165,5257,5266,26,-22,920,-63,40,46,-49,11859,32227,-22226,1737
166,5279,5289,34,-17,920,143,40,44,-49,11835,32072,-22208,1721
167,5308,5318,40,-22,926,-15,42,44,-51,12098,32036,-22304,1718
168,5330,5340,43,-21,935,175,46,46,-51,11865,32036,-22190,1719
169,5353,5363,32,-21,926,79,40,44,-51,11991,31970,-21987,1721
170,5376,5386,34,-15,918,143,45,46,-48,11847,32018,-22071,1722
171,5399,5409,30,-21,928,127,45,46,-48,11817,31868,-22448,1729
172,5422,5432,37,-19,915,-239,40,45,-48,11943,31952,-22520,1736
173,5445,5455,34,-25,922,287,43,46,-48,11775,31892,-22382,1724
174,5468,5477,30,-28,930,-127,41,42,-48,11865,32030,-22382,1729
175,5490,5500,38,-17,924,-207,45,50,-51,11805,32018,-22280,1731
176,5513,5523,38,-29,925,-95,38,49,-44,11937,32060,-22460,1724
177,5536,5546,35,-21,910,-303,45,41,-48,12038,31970,-21951,1739
178,5559,5569,29,-21,914,-319,42,46,-53,11775,32054,-22113,1724
179,5582,5592,38,-26,920,223,43,46,-48,11799,31832,-22370,1728
180,5610,5620,37,-24,919,79,42,44,-51,12021,31844,-22388,1712
181,5633,5643,41,-17,924,255,44,42,-46,12009,31946,-22334,1719
182,5656,5666,39,-23,915,63,38,41,-46,11793,32066,-22238,1721
183,5679,5689,26,-15,918,303,41,46,-49,12032,32030,-22244,1713
184,5702,5711,28,-31,916,-255,38,45,-50,12068,32084,-22454,1726
185,5724,5734,42,-24,920,0,38,46,-53,11967,31874,-22101,1724
186,5747,5757,32,-23,926,95,33,41,-54,11955,32090,-22053,1716
187,5770,5780,34,-23,920,-159,41,42,-50,12050,31952,-22196,1731
188,5793,5803,35,-20,920,255,42,48,-52,12062,32155,-22268,1722
189,5816,5826,34,-25,926,367,41,43,-48,11901,32090,-22262,1720
190,5839,5848,43,-19,927,-415,46,44,-50,11919,32132,-22352,1725
191,5861,5871,33,-21,922,-255,49,46,-46,11769,32012,-22065,1726
192,5884,5894,38,-20,917,367,45,49,-53,11991,32024,-22292,1727
193,5907,5917,42,-32,927,-431,38,43,-51,12015,31928,-22292,1729
194,5935,5945,40,-26,935,31,40,49,-54,11805,31928,-22328,1717
195,5958,5968,32,-28,922,175,49,46,-42,12044,31880,-22472,1720
196,5981,5991,54,-12,896,255,36,45,-51,11985,31742,-22089,1718
197,6004,6014,20,-36,959,287,41,45,-50,11997,31838,-21993,1724
198,6027,6036,36,-41,948,159,42,51,-49,11967,31844,-21891,1713
199,6049,6059,52,-12,917,-159,43,42,-50,12056,31946,-22083,1721
200,6072,6082,58,-7,899,31,35,35,-48,11943,31946,-21915,1726
201,6095,6105,54,-7,909,-415,42,48,-52,11823,31970,-21933,1714
202,6118,6128,10,-33,962,-159,40,43,-51,11955,31808,-21981,1726
203,6141,6151,36,-43,947,15,46,43,-45,11877,31856,-21777,1729
204,6164,6173,52,-5,906,-143,45,48,-49,11967,32030,-21801,1722
205,6186,6196,43,-9,881,111,42,43,-51,11817,31982,-22095,1728
206,6209,6219,30,-30,954,-255,48,43,-45,11817,31982,-22244,1727
207,6232,6242,27,-41,931,-15,42,50,-48,11685,31994,-22095,1716
208,6260,6270,32,-32,932,-351,44,49,-50,11811,31922,-22167,1708
209,6283,6293,57,-2,883,143,35,42,-50,11949,31982,-22244,1715
210,6306,6316,12,-41,907,-111,38,40,-51,11907,31976,-22178,1721
211,6329,6338,21,-54,950,31,40,46,-45,11949,32096,-22304,1713
212,6351,6361,61,-3,889,111,44,43,-49,11769,32072,-22047,1723
213,6374,6384,56,0,889,319,38,41,-54,12003,31976,-22023,1727
214,6397,6407,14,-43,956,143,35,37,-51,11973,32012,-22125,1725
215,6420,6430,43,-18,918,-175,36,45,-49,11949,32209,-21969,1725
216,6443,6452,34,-18,919,63,48,42,-49,11697,31982,-22143,1719
217,6465,6475,38,-18,922,335,44,43,-46,11859,31832,-22232,1714
218,6488,6498,36,-23,922,15,35,38,-43,11847,32084,-22214,1726
219,6511,6521,36,-23,917,287,37,46,-48,11817,31952,-22172,1718
220,6534,6544,39,-23,922,63,44,46,-42,11931,31976,-22232,1723
221,6557,6567,41,-23,922,-159,41,49,-46,11889,32000,-22131,1718
222,6585,6595,40,-20,930,-287,45,45,-50,12068,32048,-22143,1714
223,6608,6617,37,-20,913,-31,40,41,-49,11829,31910,-22250,1714
224,6630,6640,40,-23,928,143,42,48,-48,12032,32060,-21993,1710
225,6653,6663,39,-17,926,207,42,49,-45,11853,32054,-22196,1728
226,6676,6686,38,-17,918,159,43,43,-50,12152,32060,-22011,1709
227,6699,6709,38,-21,916,-79,40,45,-48,11871,32233,-22370,1710
228,6722,6732,42,-21,929,-79,44,48,-51,11949,31910,-22178,1723
229,6745,6754,33,-28,928,143,40,50,-46,11961,32024,-22244,1714
230,6768,6777,30,-24,932,-79,46,53,-53,11925,32251,-21861,1717
231,6790,6800,29,-17,935,-143,41,50,-44,11931,32132,-22059,1728
232,6813,6823,44,-24,929,-303,41,46,-46,11973,32329,-22196,1719
233,6836,6846,35,-22,928,-207,41,50,-44,12092,31934,-22143,1723
234,6859,6869,36,-19,931,-207,44,44,-48,11769,32048,-22119,1718
235,6882,6892,39,-21,927,207,43,42,-48,12056,32012,-22226,1712
236,6910,6920,38,-26,930,399,44,45,-49,11883,32144,-22478,1702
237,6933,6943,38,-23,932,79,45,42,-43,11943,32221,-22149,1706
238,6956,6965,30,-27,918,111,46,50,-46,12074,32006,-22532,1710
239,6978,6988,32,-17,926,31,44,49,-50,11859,32090,-22340,1713
240,7001,7011,26,-14,922,639,40,44,-45,11835,32126,-22167,1712
241,7032,7042,29,-25,922,-143,43,44,-49,11937,32126,-22562,1698
242,7055,7064,47,-21,922,-255,48,45,-49,12009,32018,-22280,1704
243,7077,7087,28,-23,916,-335,44,52,-45,11943,32042,-22268,1700
244,7100,7110,29,-23,926,-79,48,52,-45,11721,32239,-22184,1705
245,7123,7133,35,-20,924,79,41,43,-44,11715,32167,-22406,1717
246,7156,7166,30,-26,915,-63,43,49,-45,11793,32072,-22226,1696
247,7179,7189,38,-23,922,127,48,48,-46,11829,32096,-22346,1694
248,7202,7211,39,-27,920,79,45,44,-48,11955,31994,-22125,1700
249,7224,7234,30,-23,924,335,43,49,-46,11841,32114,-22214,1701
250,7253,7262,39,-16,917,-15,45,43,-48,11973,32173,-22214,1693
251,7275,7285,34,-19,920,-383,48,50,-48,11679,31982,-22334,1698
252,7298,7308,35,-24,926,-31,44,50,-50,11691,32084,-22196,1696
253,7321,7331,38,-19,923,-47,43,48,-45,11697,32209,-22041,1707
254,7344,7354,42,-15,924,-111,40,37,-46,11649,32000,-22107,1702
255,7367,7377,35,-27,925,-239,41,48,-52,11799,32197,-22149,1707
256,7389,7399,39,-23,916,-159,43,46,-49,11607,32215,-21945,1710
257,7412,7422,35,-23,917,271,42,45,-44,11739,32227,-21999,1706
258,7435,7445,42,-14,922,95,46,43,-44,11919,32042,-22053,1726
259,7458,7468,35,-23,920,271,44,42,-45,11949,31772,-22041,1713
260,7481,7491,33,-19,925,287,44,42,-48,11853,31742,-22274,1714
261,7503,7513,34,-19,917,31,41,45,-49,11973,31934,-22388,1720
262,7526,7536,36,-22,932,255,41,42,-51,12009,32000,-22394,1708
263,7554,7564,36,-22,917,143,44,44,-49,11997,32078,-22334,1713
264,7577,7587,42,-17,914,0,45,44,-49,11967,32179,-22226,1701
265,7600,7610,34,-28,919,15,42,43,-46,12104,32048,-22250,1709
266,7623,7633,39,-23,917,367,44,45,-48,12038,32215,-22472,1714
267,7646,7655,33,-31,926,-287,45,45,-46,11835,32036,-22208,1703
268,7668,7678,43,-18,929,-63,44,44,-45,12015,32084,-22268,1713
269,7691,7701,33,-20,925,63,37,38,-50,11817,32030,-22334,1712
270,7714,7724,25,-28,918,127,37,45,-50,11913,31964,-22286,1708
271,7737,7747,28,-16,927,0,41,48,-43,11883,32161,-22292,1719
272,7760,7770,40,-18,923,383,50,51,-50,11823,31982,-22250,1714
273,7783,7792,32,-23,933,0,37,45,-49,11943,32179,-21927,1715
274,7805,7815,35,-27,921,-239,38,46,-43,11937,32054,-21903,1711
275,7828,7838,32,-18,925,-223,48,46,-45,11931,32197,-22089,1714
276,7851,7861,40,-22,925,351,40,43,-48,11895,32239,-22244,1710
277,7879,7889,35,-17,919,-79,38,44,-45,11793,32108,-22340,1696
278,7902,7912,45,-17,917,-143,36,46,-52,11949,32197,-22029,1709
279,7925,7934,37,-19,927,-175,48,46,-52,11895,31958,-22125,1713
280,7947,7957,30,-24,925,15,43,44,-48,11775,31958,-22125,1712
281,7970,7980,32,-20,924,399,45,50,-48,11877,32209,-22137,1715
282,7993,8003,32,-17,929,63,45,48,-46,11919,32024,-22095,1704
283,8016,8026,34,-22,919,-335,43,46,-48,11985,32012,-22268,1704
284,8039,8049,35,-16,917,-175,48,46,-49,11901,32060,-22316,1715
285,8061,8071,39,-22,926,31,40,37,-48,12015,32042,-22226,1706
286,8084,8094,34,-18,927,47,49,52,-51,11925,32084,-22095,1722
287,8107,8117,42,-27,924,287,44,46,-45,11955,32114,-22107,1714
288,8130,8140,37,-15,929,335,40,40,-51,11883,32120,-22155,1709
289,8153,8162,34,-27,924,191,40,45,-49,11919,32233,-22172,1709
290,8175,8185,39,-15,919,-47,46,45,-43,11961,32245,-22131,1711
291,8204,8213,34,-17,921,-319,44,45,-48,12092,32185,-21927,1699
292,8226,8236,36,-21,926,191,40,48,-49,11727,32126,-22095,1700
293,8249,8259,37,-17,917,47,40,41,-45,11913,32108,-22274,1702
294,8272,8282,34,-25,928,0,43,45,-48,12098,32144,-21939,1712
295,8295,8305,39,-16,921,127,38,48,-48,11889,32084,-22005,1712
296,8317,8327,36,-25,927,367,45,44,-46,12266,32096,-22268,1710
297,8340,8350,49,-23,915,-127,46,41,-44,11997,32054,-22137,1718
298,8363,8373,33,-25,922,-31,42,45,-49,11961,32185,-21969,1707
299,8386,8396,34,-18,921,95,46,43,-49,12026,32233,-21987,1712
300,8409,8419,39,-18,927,223,41,45,-45,12098,32054,-21957,1703
301,8431,8441,40,-26,924,223,46,46,-49,12003,32287,-22113,1709
302,8454,8464,39,-19,922,111,42,41,-46,12021,32233,-22125,1708
303,8477,8487,41,-21,922,303,38,46,-48,11829,32090,-21987,1709
304,8500,8510,37,-19,930,447,46,41,-49,11889,32048,-22095,1713
305,8528,8538,34,-23,926,0,41,45,-43,11823,31958,-22053,1697
306,8551,8561,36,-22,919,15,42,45,-50,11991,31982,-22125,1707
307,8574,8584,31,-13,922,383,44,43,-44,11793,32102,-21981,1700
308,8597,8606,36,-30,920,-95,44,43,-48,11979,31964,-21981,1702
309,8619,8629,39,-23,928,143,40,45,-50,12062,31940,-22119,1717
310,8642,8652,30,-24,930,623,41,42,-49,11979,31904,-21981,1701
311,8665,8675,36,-17,926,-143,43,44,-48,11883,32066,-22220,1711
312,8688,8697,32,-19,928,-175,44,44,-48,11805,32072,-22538,1712
313,8710,8720,38,-26,926,-143,42,40,-44,11847,32054,-22119,1708
314,8733,8743,34,-21,929,-111,36,45,-51,11961,31994,-22155,1702
315,8756,8766,34,-21,926,-159,38,44,-48,11997,32000,-21837,1714
316,8779,8789,38,-14,924,175,42,45,-50,11877,31838,-22220,1706
317,8814,8824,50,-22,920,-95,40,41,-52,11901,32054,-22214,1671
318,8837,8847,35,-16,915,-303,37,36,-53,11895,32084,-22478,1692
319,8865,8875,32,-23,929,0,38,49,-51,11967,32233,-22232,1686
320,8888,8898,34,-22,928,303,46,44,-44,12080,32054,-22310,1685
321,8911,8920,37,-20,924,-95,45,41,-53,11961,32006,-22178,1682
322,8933,8943,39,-26,924,447,45,44,-49,11835,32239,-22143,1691
323,8956,8966,36,-21,925,287,42,43,-48,11979,32066,-22101,1707
324,8979,8989,28,-23,934,-79,45,51,-54,12224,32120,-22220,1699
325,9002,9011,36,-18,925,95,41,41,-50,11979,32209,-22053,1706
326,9024,9034,36,-17,915,95,45,45,-48,11991,31964,-22029,1700
327,9047,9057,35,-20,938,159,45,48,-48,11991,31988,-22149,1704
328,9070,9080,36,-19,925,31,44,45,-49,12086,32173,-22053,1711
329,9093,9102,43,-23,917,127,42,45,-48,12009,32102,-22208,1715
330,9115,9125,40,-26,931,-111,44,46,-48,12015,32239,-22047,1700
331,9138,9148,36,-20,918,-351,50,45,-51,12272,32173,-22029,1711
332,9161,9171,36,-32,925,-47,45,46,-50,12003,32215,-22107,1706
333,9189,9199,30,-23,928,-143,42,45,-48,12038,32269,-22190,1696
334,9212,9222,39,-23,925,-287,42,43,-50,12194,32191,-22083,1692
335,9235,9244,33,-26,929,351,41,43,-50,11973,32018,-22232,1699
336,9257,9267,34,-24,930,159,45,46,-54,11913,32179,-22430,1703
337,9280,9290,34,-26,917,239,44,43,-49,11919,32203,-22298,1705
338,9303,9313,36,-19,926,-31,42,43,-46,11985,32108,-22352,1709
339,9326,9336,49,-19,935,31,46,46,-43,11955,32239,-22053,1709
340,9349,9358,42,-25,917,303,42,44,-48,12044,32305,-22214,1698
341,9371,9381,28,-21,926,-63,43,44,-46,12128,32114,-21993,1710
342,9394,9404,33,-23,924,-31,43,48,-46,11847,32185,-22328,1698
343,9417,9427,32,-38,926,-111,45,45,-49,12092,32221,-22125,1706
344,9440,9450,38,-28,926,287,44,45,-50,12110,32419,-21969,1709
345,9463,9472,34,-26,924,-191,50,42,-46,11841,32138,-22113,1700
346,9491,9501,39,-19,918,351,44,42,-49,11967,32096,-22274,1694
347,9513,9523,36,-22,923,127,43,41,-52,11931,32347,-22047,1692
348,9536,9546,36,-20,927,-191,46,44,-50,11769,32347,-22155,1707
349,9559,9569,30,-17,918,255,42,44,-41,11901,32239,-22406,1700
350,9582,9592,31,-26,928,207,41,48,-50,11871,32090,-22196,1697
351,9605,9614,36,-28,917,-31,42,46,-51,11841,31994,-22047,1711
352,9627,9637,33,-21,924,143,34,51,-44,11853,32048,-22101,1702
353,9650,9660,28,-22,928,-31,44,51,-46,11655,32161,-22657,1704
354,9673,9683,35,-25,930,0,44,44,-52,11979,32102,-22556,1701
355,9696,9706,37,-21,920,63,41,48,-50,11751,32006,-22358,1704
356,9719,9728,36,-13,920,-127,35,41,-50,11643,32197,-22346,1711
357,9741,9751,45,-20,926,351,40,44,-53,11673,32239,-22424,1707
358,9764,9774,34,-5,917,0,41,43,-52,11787,32209,-22286,1703
359,9787,9797,19,-41,948,15,38,40,-43,11769,32197,-22346,1713
360,9815,9825,10,-56,974,159,40,54,-50,11961,32161,-22178,1695
361,9838,9848,28,-37,937,-79,44,43,-49,11727,32365,-22286,1697
362,9868,9878,32,-26,930,0,45,46,-54,11829,32233,-22604,1682
363,9891,9901,32,-21,918,191,45,41,-44,11625,32179,-22460,1682
364,9914,9923,39,-28,935,-207,43,41,-40,11877,32161,-22645,1686
365,9936,9946,54,-6,879,15,48,49,-54,11877,31982,-22747,1696
366,9959,9969,24,-26,906,-175,38,40,-45,11751,32102,-22675,1689
367,9982,9992,32,-26,906,399,38,43,-43,11769,32078,-22568,1701
368,10005,10015,30,-8,937,-79,45,48,-50,11733,32108,-22226,1700
369,10028,10038,39,-19,923,207,42,45,-46,11548,32114,-22358,1700
370,10051,10060,11,-17,922,255,48,58,-58,11673,32132,-22556,1708
371,10073,10083,-89,-23,924,463,41,37,-35,11679,32120,-22322,1695
372,10096,10106,53,2,924,-111,43,43,-59,11643,32155,-22532,1703
373,10119,10129,50,-26,920,0,36,41,-48,11781,31958,-22256,1707
374,10147,10157,27,-25,924,191,41,45,-49,11643,32185,-22196,1681
375,10170,10179,32,-18,919,-143,46,48,-43,11793,32096,-22610,1693
376,10192,10202,36,-21,923,-303,46,43,-44,11577,32072,-22645,1690
377,10215,10225,44,-28,930,175,49,46,-49,11715,32000,-22478,1693
378,10238,10248,41,-25,924,143,38,44,-43,12170,32000,-22705,1705
379,10261,10271,27,-28,919,47,43,44,-50,11709,32048,-22502,1699
380,10284,10293,36,-20,911,447,45,49,-48,11673,31910,-22388,1703
381,10306,10316,28,-17,924,-367,44,48,-48,11781,32060,-22286,1705
382,10329,10339,33,-23,923,127,42,50,-52,11709,32024,-22125,1704
383,10352,10362,41,-13,915,335,44,40,-44,11829,31928,-22538,1703
384,10375,10384,34,-30,921,0,36,45,-50,11763,31898,-22424,1702
385,10397,10407,41,-19,926,255,43,43,-45,11913,31934,-22071,1697
386,10420,10430,31,-22,922,255,43,42,-44,11811,32090,-22226,1709
387,10443,10453,45,-17,926,511,41,42,-54,11883,31940,-22286,1701
388,10471,10481,36,-18,930,207,43,45,-46,11721,32114,-22172,1688
389,10494,10504,32,-20,921,-143,40,50,-41,11745,31988,-22208,1688
390,10516,10526,35,-23,927,31,49,42,-48,11889,32185,-22202,1699
391,10539,10549,36,-24,917,79,42,48,-50,11907,32072,-22214,1708
392,10562,10572,31,-28,926,-127,44,46,-46,12003,31940,-22268,1696
393,10585,10595,39,-21,921,-15,44,45,-51,11709,31976,-22424,1696
394,10608,10617,41,-15,929,-175,40,48,-46,11751,32078,-21999,1699
395,10630,10640,34,-21,917,319,43,43,-46,11865,32018,-22083,1694
396,10653,10663,33,-26,961,95,51,56,-54,11979,32012,-22214,1712
397,10676,10686,30,-15,923,-31,48,45,-41,11733,32024,-22316,1701
398,10698,10708,36,-20,929,431,38,46,-48,11763,32018,-22107,1703
399,10721,10731,36,-26,925,-399,44,42,-50,11805,32114,-22286,1708
400,10744,10754,35,-25,935,223,43,42,-49,11781,31916,-22460,1697
401,10767,10777,37,-28,922,79,42,44,-49,11829,32006,-22322,1707
402,10795,10805,38,-20,924,127,43,46,-43,11967,31988,-22508,1686
403,10818,10827,37,-13,920,-127,43,46,-50,11775,32167,-22436,1691
404,10840,10850,36,-18,928,-111,45,42,-46,11913,32048,-22574,1691
405,10863,10873,41,-33,928,367,44,46,-48,11889,32006,-22657,1694
406,10886,10896,41,-15,924,0,46,40,-49,12021,32096,-22208,1707
407,10909,10918,36,-18,912,-479,48,51,-49,11997,31970,-22155,1694
408,10931,10941,41,-17,929,-31,46,40,-44,11943,31952,-22035,1693
409,10954,10964,40,-26,926,687,40,49,-49,11949,32132,-22466,1704
410,10977,10987,40,-20,917,-191,40,42,-49,11997,32108,-22550,1699
411,11000,11009,30,-28,930,-479,41,43,-51,11997,31922,-22280,1700
412,11022,11032,35,-19,923,0,40,40,-48,11859,32066,-22107,1705
413,11045,11055,38,-23,927,-287,42,51,-52,11955,31994,-22316,1701
414,11068,11078,44,-28,922,-63,42,49,-49,11955,31814,-22334,1701
415,11091,11101,41,-26,915,303,41,42,-49,11985,32072,-22226,1701
416,11119,11129,29,-20,930,63,44,46,-48,12021,31928,-22190,1693
417,11141,11151,33,-18,932,-511,42,44,-51,11943,31928,-22310,1685
418,11164,11174,37,-27,925,-47,43,38,-49,11997,32066,-22328,1693
419,11187,11197,37,-26,926,95,40,44,-51,12056,31928,-22430,1699
420,11210,11220,40,-21,917,-143,42,43,-50,11997,31862,-22550,1693
421,11232,11242,32,-23,924,255,43,40,-50,12140,31826,-22268,1699
422,11255,11265,32,-27,924,95,44,44,-50,12164,32102,-22388,1696
423,11278,11288,37,-16,919,-191,37,50,-45,12128,32090,-22041,1697
424,11301,11311,35,-18,928,143,36,43,-51,12062,31964,-21915,1702
425,11323,11333,62,-20,951,-111,54,35,-41,11823,32060,-22137,1699
426,11504,11513,18,-37,905,367,43,42,-51,11703,31892,-22172,1764
427,11683,11693,-45,-34,906,79,53,57,-43,12044,32084,-22214,1953
428,11858,11868,16,-8,981,-271,49,53,-53,11895,32179,-22184,2027
429,12034,12044,17,-42,952,175,46,52,-51,11721,32293,-22137,2050
430,12212,12222,29,-10,913,-399,38,42,-52,11733,32215,-22250,2063
431,12387,12397,69,-8,896,447,37,38,-48,11344,31976,-21963,2072
432,12563,12573,49,-10,900,255,42,43,-46,11572,32167,-21891,2069
433,12747,12757,17,-41,953,447,48,42,-48,11787,32287,-22011,2055
434,12926,12936,-37,-34,926,271,52,42,-49,11452,32155,-21837,2064
435,13102,13112,30,74,987,127,44,42,-41,11601,32191,-21993,2084
436,13278,13287,0,-64,934,255,62,48,-46,11428,32179,-22286,2077
437,13455,13465,67,-30,893,-351,49,36,-44,11488,32132,-22214,2075
438,13631,13641,54,-21,915,95,43,42,-46,11392,32173,-22137,2083
439,13806,13816,46,34,889,335,41,33,-49,11613,32066,-21789,2080
440,13982,13992,47,-17,904,-223,43,46,-48,11380,32251,-21849,2081
441,14158,14168,76,-18,897,-335,37,41,-49,11302,32006,-22005,2074
442,14334,14344,73,-6,889,255,43,44,-51,11296,31892,-21975,2091
443,14510,14519,-63,25,700,223,44,28,-56,11458,32006,-21951,2083
444,14688,14697,32,-31,935,-63,42,38,-48,11386,31665,-22035,2094
445,14863,14873,43,-19,924,-127,41,48,-50,11350,31455,-22071,2087
446,15039,15049,35,-20,926,-511,42,42,-49,11554,31623,-22125,2093
447,15222,15232,35,-26,922,63,37,43,-50,11625,31880,-21909,2094
448,15409,15419,37,-14,917,-399,44,41,-48,11655,31754,-22047,2094
449,15585,15595,38,-22,926,-47,36,41,-50,11554,31557,-22172,2098
450,15761,15770,43,-28,925,-175,35,42,-44,11631,31593,-22406,2091
451,15938,15948,28,-19,924,223,41,44,-44,11434,31401,-22113,2093
452,16114,16124,43,-19,925,-15,50,42,-49,11739,31521,-22059,2097
453,16290,16299,38,-21,930,-303,37,45,-49,11643,31449,-22149,2097
454,16465,16475,36,-17,926,0,38,42,-49,11548,31748,-22167,2098
455,16642,16652,42,-26,930,319,38,43,-49,11494,31599,-22490,2096
456,16814,16823,36,-17,909,271,44,48,-48,11446,31497,-22256,2097
457,16999,17009,31,-21,928,-399,44,41,-46,11512,31569,-22340,2098
458,17175,17185,36,-19,922,207,41,48,-48,11781,31533,-22071,2093
459,17354,17364,30,-15,922,-63,40,45,-51,11589,31689,-22005,2102
460,17530,17540,40,-26,931,159,42,44,-49,11655,31419,-22268,2099
461,17705,17715,32,-24,927,223,49,42,-45,11709,31784,-22256,2100
462,17883,17893,34,-22,916,511,41,38,-45,11500,31736,-22484,2103
463,18066,18075,43,-17,930,79,40,44,-48,11787,31820,-22412,2100
464,18241,18251,33,-21,919,-335,42,41,-42,11667,31605,-22083,2101
465,18417,18427,32,-21,926,95,38,46,-50,11595,31647,-22346,2111
466,18596,18606,28,-20,936,191,42,46,-49,11482,31712,-22029,2095
467,18772,18782,43,-21,928,-127,45,43,-49,11607,31790,-22382,2106
468,18948,18958,29,-23,926,-207,46,46,-46,11745,31557,-22394,2102
469,19125,19135,40,-17,923,207,45,49,-46,11566,31814,-22023,2105
470,19300,19310,39,-20,929,-335,42,45,-48,11512,31605,-22131,2109
471,19472,19482,36,-26,918,175,51,42,-51,11631,31587,-22268,2109
472,19647,19657,37,-21,932,127,38,43,-43,11625,31712,-22011,2111
473,19827,19837,25,-18,924,63,43,43,-48,11410,31449,-22143,2099
474,20002,20012,35,-19,917,111,38,45,-44,11757,31557,-21915,2111
475,20186,20196,36,-19,929,399,36,42,-45,11566,31623,-21604,2109
476,20363,20373,38,-24,922,-207,49,42,-49,11488,31653,-22220,2107
477,20539,20549,32,-18,924,-95,46,42,-45,11583,31802,-21771,2104
478,20721,20731,36,-19,935,63,44,50,-45,11476,31766,-21891,2108
479,20905,20915,37,-17,926,0,42,44,-49,11440,31659,-22089,2112
480,21083,21093,34,-17,928,-463,44,45,-49,11769,31778,-22161,2116
481,21259,21269,45,-14,918,31,41,42,-45,11350,31748,-22077,2106
482,21434,21444,46,-21,928,319,44,50,-51,11583,31497,-22334,2111
483,21612,21622,36,-26,922,319,43,41,-50,11566,31790,-22178,2108
484,21788,21797,41,-20,924,-63,48,43,-45,11542,31593,-22196,2107
485,21962,21972,34,-20,924,143,42,46,-44,11583,31527,-22382,2113
486,22134,22144,34,-18,924,143,40,38,-45,11542,31724,-22226,2120
487,22312,22322,79,-85,889,159,35,44,-49,11350,31892,-22113,2115
488,22500,22510,70,-4,915,31,25,48,-46,11356,32102,-22113,2106
489,22676,22686,50,6,885,287,48,49,-46,11170,31988,-22274,2112
490,22852,22862,104,1,870,-319,40,49,-48,11326,32042,-22358,2122
491,23031,23041,-2,-85,900,-95,51,35,-33,11344,32126,-22059,2112
492,23207,23216,19,-47,917,47,49,48,-49,11332,32012,-22172,2105
493,23396,23406,33,13,917,591,40,32,-44,11446,32024,-22155,2115
494,23574,23584,-2,-58,937,47,34,38,-44,11380,32126,-22053,2116
495,23750,23760,-24,-66,930,63,37,49,-49,11296,32042,-22095,2122
496,23926,23936,34,-33,940,335,40,41,-44,11230,32287,-22035,2110
497,24101,24111,10,-45,893,-367,22,32,-46,11601,32425,-21957,2109
498,24280,24290,-1,-10,948,-143,62,51,-53,11661,32072,-22238,2113
499,24456,24466,-10,-8,1027,-175,32,45,-46,11625,32443,-22172,2112
500,24630,24640,2,-63,955,-239,69,53,-50,11757,32419,-22292,2121
501,24808,24817,26,-37,954,-31,44,44,-45,11901,32449,-22095,2106
502,24983,24993,168,-47,900,383,56,41,-44,11943,32431,-22107,2120
503,25159,25169,25,-66,943,-271,46,43,-38,11739,32461,-22089,2120
504,25335,25344,32,22,1021,-255,44,22,-30,11853,32533,-22041,2119
505,25514,25524,43,8,941,271,40,41,-45,11967,32437,-22029,2116
506,25689,25699,38,-15,920,191,41,45,-48,12182,32425,-22005,2114
507,25865,25875,40,-18,928,-47,41,46,-49,12026,32425,-21867,2116
508,26052,26062,32,-14,928,-159,40,43,-51,11901,32652,-22155,2118
509,26228,26237,33,-15,917,271,48,42,-50,11943,32592,-22053,2125
510,26403,26413,32,-27,930,-63,41,45,-45,11913,32598,-21909,2125
511,26579,26589,32,-27,933,79,42,45,-48,11919,32533,-21975,2120
512,26757,26767,32,-26,924,31,43,44,-52,11973,32317,-21945,2111
513,26932,26942,41,-19,918,-159,40,42,-49,11949,32634,-22053,2118
514,27108,27118,32,-22,926,399,42,43,-45,12086,32341,-22143,2118
515,27285,27295,28,-15,920,-63,44,45,-43,11961,32455,-21855,2123
516,27460,27470,30,-24,924,271,45,42,-49,11817,32311,-21969,2121
517,27636,27646,37,-17,922,-143,48,50,-48,11925,32335,-22274,2122
