count,tInitial,tFinal,accel_x,accel_y,accel_z,accel_high,gyro_x,gyro_y,gyro_z,mag_x,mag_y,mag_z,temp,packet_num
0,1196,1206,44,-23,896,223,199,-818,110,13475,-29645,-19443,2273,1
1,1266,1276,43,-23,893,-63,201,-814,110,13679,-29723,-19604,2116,2
2,1289,1299,41,-13,892,351,201,-818,110,13733,-29747,-19502,2055,3
3,1312,1321,43,-20,897,-303,200,-817,112,13745,-29759,-19479,2014,4
4,1334,1344,39,-25,895,319,195,-814,110,13846,-29747,-19520,1971,5
5,1357,1367,45,-26,902,63,200,-820,112,13960,-29723,-19568,1947,6
6,1380,1390,39,-23,904,575,196,-817,108,13463,-29669,-19353,1922,7
7,1403,1412,42,-23,906,-79,199,-814,113,13763,-29627,-19161,1902,8
8,1425,1435,37,-32,907,-415,199,-815,109,13553,-29615,-19479,1891,9
9,1448,1458,53,-18,905,31,201,-814,106,13691,-29729,-19449,1873,10
10,1471,1480,45,-28,899,111,201,-816,108,13589,-29639,-19311,1858,11
11,1493,1503,39,-23,900,-239,195,-821,110,13571,-29645,-19497,1855,12
12,1516,1526,36,-20,911,463,195,-815,109,13487,-29603,-19479,1844,13
13,1539,1549,35,-18,912,159,196,-814,113,13565,-29501,-19443,1838,14
14,1589,1599,41,-21,908,271,197,-818,106,13619,-29376,-18856,1788,15
15,1612,1622,41,-15,909,-367,197,-824,106,13529,-29531,-19251,1791,16
16,1635,1645,43,-23,894,431,197,-816,107,13607,-29340,-19335,1786,17
17,1658,1668,37,-21,905,-79,202,-820,108,13583,-29525,-19485,1788,18
18,1681,1691,40,-17,907,-127,202,-822,106,13607,-29453,-19461,1790,19
19,1704,1714,47,-19,900,-271,199,-813,105,13565,-29477,-18976,1785,20
20,1727,1737,40,-33,904,79,199,-820,112,13535,-29441,-19269,1789,21
21,1750,1760,43,-22,910,511,194,-818,107,13344,-29723,-19036,1786,22
22,1773,1782,41,-27,907,111,199,-813,107,13499,-29513,-19335,1789,23
23,1796,1805,36,-28,909,351,202,-815,107,13505,-29555,-19353,1786,24
24,1818,1828,42,-23,911,-79,196,-817,106,13469,-29483,-19095,1783,25
25,1841,1851,41,-25,914,0,195,-816,108,13511,-29537,-19024,1782,26
26,1864,1874,45,-30,900,127,196,-821,109,13619,-29477,-19131,1784,27
27,1916,1926,38,-29,906,79,196,-827,112,13619,-29537,-18928,1728,28
28,1939,1949,37,-26,903,-271,199,-820,107,13655,-29687,-19425,1739,29
29,1962,1972,40,-23,917,-63,196,-821,108,13571,-29519,-19089,1756,30
30,1985,1995,45,-19,909,207,197,-816,109,13469,-29651,-19227,1744,31
31,2008,2017,41,-22,907,591,195,-821,104,13571,-29435,-19125,1760,32
32,2031,2040,41,-28,911,287,199,-818,108,13649,-29465,-19179,1765,33
33,2053,2063,39,-26,905,111,199,-816,112,13361,-29513,-19592,1762,34
34,2076,2086,39,-21,910,255,195,-820,106,13499,-29597,-19083,1768,35
35,2099,2109,50,-21,911,63,194,-821,109,13535,-29663,-19149,1771,36
36,2122,2132,44,-21,918,127,197,-821,112,13356,-29585,-19335,1767,37
37,2145,2155,39,-26,906,223,196,-816,110,13361,-29854,-19179,1772,38
38,2168,2178,43,-26,911,-303,202,-815,107,13601,-29561,-19227,1765,39
39,2191,2201,37,-23,921,303,194,-816,106,13367,-29645,-19514,1773,40
40,2219,2229,48,-19,911,303,197,-818,104,13499,-29633,-19281,1759,41
41,2242,2252,43,-20,909,111,200,-818,108,13284,-29609,-19221,1764,42
42,2265,2275,38,-21,915,-255,202,-822,106,13284,-29435,-19215,1763,43
43,2288,2298,42,-16,925,-319,194,-816,109,13260,-29585,-18904,1764,44
44,2311,2321,45,-21,904,127,195,-816,113,13350,-29471,-19131,1766,45
45,2334,2344,45,-26,911,-191,205,-816,112,13344,-29441,-19125,1765,46
46,2357,2367,43,-22,913,335,199,-818,112,13361,-29322,-19532,1768,47
47,2380,2390,44,-25,915,15,200,-814,105,13481,-29585,-19215,1764,48
48,2403,2412,36,-21,916,0,200,-821,107,13493,-29645,-19335,1764,49
49,2426,2435,34,-20,916,783,199,-821,105,13505,-29675,-19155,1772,50
50,2448,2458,34,-22,906,-79,202,-817,108,13344,-29525,-19485,1762,51
51,2472,2481,38,-28,921,463,196,-815,106,13344,-29495,-19377,1766,52
52,2495,2504,39,-25,917,175,193,-817,110,13236,-29495,-19269,1764,53
53,2523,2533,36,-23,911,-63,199,-815,106,13541,-29399,-19293,1755,54
54,2546,2555,39,-21,927,63,196,-816,110,13511,-29417,-19467,1756,55
55,2569,2578,41,-23,911,191,197,-815,104,13613,-29190,-19658,1757,56
56,2591,2601,40,-20,906,-223,199,-823,106,13553,-29537,-19562,1757,57
57,2614,2624,39,-33,922,-255,202,-815,112,13445,-29537,-19227,1757,58
58,2637,2647,36,-25,913,-287,195,-822,109,13457,-29399,-19437,1759,59
59,2660,2670,46,-22,915,-271,202,-818,109,13505,-29387,-19574,1760,60
60,2683,2693,50,-18,912,335,197,-823,107,13559,-29483,-19263,1753,61
61,2706,2716,34,-21,917,-287,196,-815,104,13451,-29411,-19556,1762,62
62,2729,2739,50,-21,926,479,197,-821,105,13415,-29316,-19419,1766,63
63,2752,2762,43,-23,921,143,197,-814,106,13589,-29334,-19616,1757,64
64,2775,2785,40,-23,922,-191,197,-820,110,13475,-29525,-19437,1762,65
65,2798,2808,48,-24,917,319,195,-820,107,13511,-29364,-19431,1761,66
66,2826,2836,37,-23,919,-431,196,-820,108,13475,-29471,-19293,1751,67
67,2849,2859,41,-15,915,143,200,-818,112,13535,-29447,-19239,1748,68
68,2872,2881,46,-27,911,-95,197,-822,114,13487,-29429,-19173,1745,69
69,2895,2904,37,-21,918,-191,199,-817,109,13559,-29519,-19059,1758,70
70,2917,2927,34,-22,915,191,197,-821,106,13493,-29501,-19245,1750,71
71,2940,2950,45,-28,914,-191,195,-818,108,13403,-29447,-19227,1758,72
72,2963,2973,37,-20,918,-255,195,-955,116,13314,-29681,-19167,1752,73
73,2986,2996,34,-23,915,111,256,-740,-241,13523,-29417,-19239,1754,74
74,3009,3019,39,-20,923,-271,184,-456,-189,13457,-29555,-19143,1758,75
75,3032,3042,37,-30,922,79,130,-241,-156,13248,-29609,-19161,1753,76
76,3055,3065,45,-28,913,-191,96,-91,-142,13457,-29531,-19293,1749,77
77,3090,3100,39,-21,927,0,42,108,-100,13379,-29453,-19287,1728,78
78,3113,3123,41,-23,916,63,22,185,-101,13463,-29495,-19155,1731,79
79,3141,3151,41,-24,918,-31,8,259,-99,13739,-29328,-19179,1727,80
80,3164,3174,49,-27,922,143,3,296,-99,13589,-29244,-19065,1729,81
81,3187,3197,40,-26,917,-303,-11,314,-93,13481,-29256,-18970,1729,82
82,3210,3220,30,-31,923,31,-2,324,-93,13601,-29352,-19107,1743,83
83,3233,3243,47,-26,902,-111,-19,322,-86,13517,-29214,-19149,1742,84
84,3256,3266,29,-13,953,415,-22,325,-85,13415,-29387,-19233,1749,85
85,3279,3289,41,-26,948,47,-9,340,-78,13427,-29292,-19137,1749,86
86,3302,3311,39,-39,889,159,-4,324,-82,13260,-29393,-19275,1738,87
87,3325,3334,64,-48,878,143,-18,304,-82,13356,-29405,-18790,1746,88
88,3347,3357,72,-33,907,415,-17,285,-77,13254,-29376,-18898,1750,89
89,3370,3380,36,-6,967,399,-21,274,-80,13547,-29417,-18940,1744,90
90,3393,3403,34,-4,967,319,6,273,-72,13415,-29537,-19036,1752,91
91,3416,3426,30,-20,915,-447,2,260,-66,13439,-29238,-19359,1750,92
92,3444,3454,38,-2,940,351,4,253,-54,13439,-29376,-19101,1738,93
93,3467,3477,57,-45,875,239,22,234,-53,13505,-29561,-19131,1737,94
94,3490,3500,60,-31,876,-255,-6,204,-46,13302,-29561,-19227,1741,95
95,3513,3523,68,-21,935,239,5,192,-44,13433,-29286,-19269,1746,96
96,3536,3545,28,-4,957,399,12,184,-38,13589,-29483,-19065,1740,97
97,3559,3568,21,-11,943,-31,22,177,-33,13379,-29633,-19137,1747,98
98,3581,3591,54,-44,878,335,25,162,-33,13260,-29489,-18880,1741,99
99,3604,3614,60,-47,878,111,6,148,-30,13350,-29441,-18958,1742,100
100,3627,3637,48,-21,961,15,26,128,-34,13409,-29645,-19245,1754,101
101,3650,3660,24,-6,963,-383,37,126,-30,13367,-29609,-18802,1743,102
102,3673,3683,32,-10,925,-367,22,118,-33,13439,-29615,-19018,1741,103
103,3696,3706,47,-26,898,303,35,100,-37,13272,-29537,-18970,1744,104
104,3719,3728,58,-41,891,63,28,82,-35,13356,-29591,-19179,1742,105
105,3741,3751,34,-8,917,-239,30,70,-37,13314,-29519,-19257,1742,106
106,3770,3779,35,-8,960,0,37,56,-40,13170,-29423,-19299,1726,107
107,3792,3802,29,-12,920,-47,42,54,-40,13224,-29382,-19299,1736,108
108,3815,3825,41,-32,883,399,43,42,-49,13260,-29513,-19341,1740,109
109,3838,3848,62,-33,905,-95,40,42,-50,13290,-29585,-18856,1734,110
110,3861,3871,28,-21,933,-271,44,42,-51,13385,-29411,-19042,1741,111
111,3884,3894,29,-9,940,15,46,46,-46,13290,-29537,-19113,1743,112
112,3907,3917,59,-22,909,-15,48,46,-51,13314,-29423,-19293,1739,113
113,3930,3940,56,-39,893,-47,37,40,-52,13421,-29675,-19083,1745,114
114,3953,3963,30,-30,922,-351,42,40,-45,13272,-29393,-19107,1737,115
115,3976,3986,23,-4,950,63,38,48,-49,13314,-29423,-19311,1745,116
116,3999,4009,28,-28,925,207,42,49,-45,13272,-29370,-19395,1743,117
117,4022,4031,60,-36,887,415,38,46,-46,13421,-29465,-19371,1738,118
118,4045,4054,51,-23,924,0,38,38,-51,13326,-29435,-19131,1746,119
119,4073,4083,32,-13,957,335,43,42,-49,13457,-29399,-19089,1722,120
120,4103,4113,52,-36,900,0,40,38,-49,13278,-29483,-19293,1711,121
121,4126,4136,41,-13,961,111,41,46,-46,13397,-29405,-19383,1725,122
122,4149,4159,43,-10,965,15,49,51,-46,13224,-29537,-19191,1727,123
123,4172,4182,50,-36,880,351,43,52,-44,13230,-29747,-19083,1724,124
124,4195,4204,39,-19,892,-271,35,38,-50,13463,-29483,-19353,1734,125
125,4217,4227,40,-16,957,0,45,48,-46,13529,-29543,-19520,1727,126
126,4240,4250,41,-29,946,-223,45,48,-48,13421,-29393,-19443,1730,127
127,4263,4273,56,-37,884,335,43,44,-42,13517,-29429,-19491,1736,128
128,4286,4296,39,-19,952,-63,38,40,-43,13314,-29639,-19197,1732,129
129,4309,4319,33,-10,965,367,41,43,-45,13463,-29334,-18934,1737,130
130,4332,4342,41,-37,881,127,44,52,-42,13176,-29340,-19245,1733,131
131,4355,4365,60,-35,898,-287,36,41,-49,13188,-29477,-19299,1733,132
132,4383,4393,32,-13,956,15,40,38,-51,13415,-29615,-19113,1730,133
133,4406,4416,35,-16,948,0,50,51,-51,13128,-29411,-19353,1725,134
134,4429,4439,45,-35,885,63,41,44,-43,13391,-29274,-19281,1732,135
135,4452,4461,45,-22,899,-207,36,37,-46,13320,-29429,-19449,1722,136
136,4474,4484,30,-13,955,463,43,44,-53,13332,-29274,-19275,1736,137
137,4497,4507,57,-32,922,63,44,48,-40,13326,-29525,-19652,1736,138
138,4520,4530,68,-27,904,-623,41,40,-48,13248,-29567,-19371,1726,139
139,4543,4553,32,-14,940,351,43,38,-49,13350,-29435,-19634,1740,140
140,4566,4576,35,-13,930,351,45,51,-44,13230,-29579,-19562,1733,141
141,4589,4599,64,-35,902,-127,36,45,-51,13308,-29495,-19754,1728,142
142,4612,4622,42,-27,939,143,42,41,-51,13367,-29304,-19467,1737,143
143,4635,4644,23,-19,785,143,45,45,-48,13350,-29292,-19652,1731,144
144,4657,4667,47,-30,912,175,35,40,-52,13344,-29567,-19604,1733,145
145,4686,4695,50,-17,957,255,42,51,-48,13553,-29489,-19347,1716,146
146,4708,4718,30,-30,963,159,44,57,-44,13409,-29507,-19730,1728,147
147,4731,4741,47,-22,888,207,37,53,-43,13541,-29376,-19544,1730,148
148,4754,4764,44,-13,897,-671,41,41,-50,13415,-29232,-19461,1726,149
149,4777,4787,36,-17,955,0,42,45,-44,13302,-29405,-19574,1732,150
150,4800,4810,57,-33,899,79,42,51,-46,13302,-29328,-19526,1731,151
151,4823,4833,54,-22,924,15,41,40,-51,13433,-29346,-19437,1724,152
152,4846,4856,28,-19,944,-255,42,43,-44,13397,-29519,-19341,1731,153
153,4878,4888,51,-33,897,-399,46,48,-48,13182,-29196,-19317,1717,154
154,4901,4911,54,-17,937,-159,38,37,-50,13266,-29387,-19383,1707,155
155,4924,4934,28,-24,952,143,44,49,-49,13218,-29340,-19598,1719,156
156,4947,4956,45,-34,880,-303,42,51,-50,13296,-29268,-19479,1725,157
157,4970,4979,56,-26,905,303,42,35,-53,13152,-29286,-19682,1713,158
158,4998,5008,47,-24,932,-95,40,44,-52,13350,-29226,-19197,1711,159
159,5021,5030,31,-22,915,-175,37,48,-45,13493,-29280,-19341,1715,160
160,5043,5053,36,-23,926,63,41,50,-46,13385,-29172,-19479,1720,161
161,5066,5076,45,-26,919,-319,38,45,-51,13463,-29334,-19347,1725,162
162,5089,5099,40,-32,928,367,43,42,-43,13547,-29399,-19311,1720,163
163,5112,5122,36,-19,922,-191,44,43,-42,13595,-29423,-19335,1725,164
164,5135,5145,49,-23,928,47,43,46,-43,13643,-29453,-19359,1720,165
165,5158,5168,44,-23,920,-399,43,49,-45,13356,-29268,-19239,1729,166
166,5181,5190,40,-30,928,175,41,46,-49,13427,-29214,-19383,1734,167
167,5203,5213,38,-19,923,255,45,48,-50,13266,-29334,-19622,1721,168
168,5226,5236,40,-27,925,-255,43,38,-50,13290,-29262,-19323,1734,169
169,5249,5259,36,-29,928,-111,36,52,-45,13290,-29340,-19419,1729,170
170,5272,5282,39,-28,920,287,37,42,-46,13344,-29453,-19287,1720,171
171,5300,5310,43,-23,922,47,40,48,-50,13427,-29376,-19455,1715,172
172,5323,5333,46,-27,920,255,37,46,-51,13403,-29304,-19437,1718,173
173,5346,5356,48,-28,920,-319,46,38,-48,13523,-29256,-19329,1721,174
174,5369,5379,36,-28,915,175,42,45,-45,13445,-29292,-19443,1721,175
175,5392,5401,39,-21,917,447,41,43,-49,13541,-29376,-19449,1723,176
176,5415,5424,43,-24,925,-47,42,49,-48,13236,-29435,-19497,1728,177
177,5437,5447,40,-29,924,287,44,48,-45,13445,-29340,-19119,1721,178
178,5460,5470,52,-24,924,-15,45,44,-45,13356,-29328,-19586,1726,179
179,5483,5493,50,-26,922,175,42,45,-54,13397,-29304,-19191,1722,180
180,5506,5516,41,-22,918,-351,40,44,-46,13535,-29453,-19329,1720,181
181,5529,5539,41,-24,916,-127,41,42,-43,13391,-29316,-19305,1734,182
182,5552,5562,40,-29,928,175,40,48,-45,13326,-29435,-19401,1725,183
183,5575,5585,41,-21,926,-47,45,48,-48,13427,-29591,-19227,1723,184
184,5603,5613,36,-20,911,431,42,44,-48,13541,-29382,-19640,1712,185
185,5626,5635,41,-24,925,-399,41,50,-49,13373,-29376,-19598,1721,186
186,5648,5658,36,-23,924,-111,42,43,-42,13541,-29471,-19083,1720,187
187,5671,5681,45,-32,925,79,41,45,-49,13344,-29370,-19550,1717,188
188,5694,5704,42,-27,917,0,41,53,-42,13397,-29238,-19431,1722,189
189,5717,5727,52,-23,917,-159,41,45,-46,13326,-29334,-19556,1728,190
190,5740,5750,34,0,891,-63,37,33,-48,13379,-29405,-19658,1714,191
191,5763,5773,52,-61,852,175,54,40,-44,13356,-29382,-19263,1726,192
192,5786,5795,55,-44,988,-399,40,48,-48,13421,-29148,-19508,1725,193
193,5808,5818,74,-40,932,-287,45,46,-43,13320,-29459,-19682,1719,194
194,5831,5841,43,-46,909,63,43,48,-48,13344,-29328,-19137,1727,195
195,5854,5864,38,-19,946,79,38,43,-48,13338,-29214,-19413,1717,196
196,5877,5887,32,-18,920,-47,38,48,-44,13338,-29226,-19473,1731,197
197,5905,5915,45,-23,921,-223,42,46,-41,13397,-29429,-19538,1708,198
198,5928,5938,42,-30,926,0,42,46,-43,13361,-29190,-19598,1719,199
199,5951,5960,31,-43,901,63,44,45,-41,13451,-29435,-19401,1713,200
200,5973,5983,32,-26,954,-159,44,46,-43,13421,-29543,-19604,1717,201
201,5996,6006,47,-40,911,383,41,41,-43,13152,-29639,-19293,1718,202
202,6019,6029,47,-41,872,-255,30,45,-48,13296,-29639,-19532,1719,203
203,6042,6052,59,-23,943,-191,45,38,-53,13344,-29399,-19311,1723,204
204,6065,6075,50,-17,957,127,46,37,-50,13296,-29555,-19622,1727,205
205,6088,6097,26,1,959,0,45,46,-45,13338,-29280,-19574,1718,206
206,6110,6120,28,-5,954,-239,43,53,-50,13260,-29334,-19443,1722,207
207,6133,6143,39,-39,875,191,43,51,-46,13224,-29399,-19179,1716,208
208,6156,6166,56,-34,872,-79,36,41,-53,13415,-29376,-19341,1720,209
209,6179,6189,63,-31,911,575,37,40,-48,13170,-29393,-19293,1726,210
210,6202,6212,31,-2,973,-271,40,48,-50,13361,-29477,-19275,1717,211
211,6230,6240,34,-6,962,271,46,51,-48,13326,-29250,-19359,1713,212
212,6253,6262,41,-28,913,175,41,50,-46,13158,-29447,-19586,1704,213
213,6276,6285,63,-40,891,527,43,43,-43,13182,-29471,-19395,1723,214
214,6298,6308,57,-27,928,287,41,37,-51,13218,-29256,-19018,1718,215
215,6321,6331,34,-3,942,127,41,46,-44,13224,-29615,-19341,1707,216
216,6344,6354,15,-10,941,111,45,52,-44,13290,-29543,-19293,1726,217
217,6367,6377,55,-41,878,-255,40,45,-48,13463,-29441,-19071,1717,218
218,6390,6400,61,-39,891,271,38,37,-49,13350,-29477,-19173,1711,219
219,6413,6423,21,-18,961,-191,51,41,-45,13290,-29615,-19287,1723,220
220,6436,6445,39,-24,913,-143,43,45,-43,13158,-29358,-19449,1716,221
221,6458,6468,36,-23,922,191,37,44,-42,13314,-29142,-19263,1720,222
222,6481,6491,47,-21,924,-15,32,40,-45,13535,-29208,-19431,1722,223
223,6504,6514,44,-21,920,79,33,41,-43,13469,-29429,-19227,1714,224
224,6532,6542,40,-26,934,255,33,42,-48,13332,-29370,-19215,1714,225
225,6555,6565,41,-26,925,95,42,46,-48,13427,-29376,-19305,1709,226
226,6578,6588,48,-19,926,-111,42,44,-46,13338,-29447,-19497,1717,227
227,6601,6611,37,-22,924,-143,40,44,-51,13397,-29465,-19395,1706,228
228,6624,6633,47,-19,936,447,41,42,-46,13356,-29573,-19239,1707,229
229,6647,6656,35,-10,928,0,45,58,-43,13457,-29382,-19263,1717,230
230,6669,6679,46,-22,930,63,40,40,-48,13469,-29304,-19305,1713,231
231,6692,6702,43,-25,925,127,41,45,-45,13391,-29268,-19652,1713,232
232,6715,6725,44,-19,935,111,41,43,-49,13523,-29322,-19329,1714,233
233,6738,6748,30,-19,917,-111,43,49,-48,13439,-29250,-19215,1711,234
234,6761,6771,34,-20,916,0,41,38,-49,13248,-29136,-19293,1727,235
235,6784,6793,50,-27,933,-143,45,46,-45,13475,-29429,-19586,1712,236
236,6806,6816,36,-25,920,-143,45,45,-49,13505,-29124,-19347,1716,237
237,6835,6844,49,-29,926,0,45,46,-45,13415,-29202,-19179,1703,238
238,6857,6867,42,-21,930,111,46,37,-46,13427,-29142,-19485,1706,239
239,6880,6890,41,-28,920,479,38,48,-44,13421,-29196,-19377,1712,240
240,6903,6913,35,-30,916,0,41,48,-50,13529,-29346,-19221,1711,241
241,6933,6943,39,-31,919,-95,41,46,-48,13493,-29256,-19257,1696,242
242,6956,6966,45,-22,931,415,45,44,-53,13481,-29286,-19389,1699,243
243,6979,6989,34,-26,922,0,41,44,-46,13356,-29238,-19233,1711,244
244,7002,7012,36,-25,927,-143,42,45,-48,13397,-29226,-19203,1698,245
245,7025,7035,43,-23,922,127,41,44,-45,13469,-29256,-19233,1712,246
246,7048,7058,47,-20,924,191,41,43,-49,13439,-29316,-19036,1710,247
247,7071,7080,42,-20,925,95,42,50,-46,13553,-29447,-19520,1705,248
248,7093,7103,35,-28,922,159,43,50,-51,13535,-29226,-19281,1717,249
249,7116,7126,39,-26,916,-431,41,45,-50,13571,-29489,-19245,1719,250
250,7144,7154,45,-29,924,-367,43,46,-46,13487,-29453,-19407,1699,251
251,7167,7177,41,-22,920,-239,41,44,-49,13421,-29399,-19317,1706,252
252,7190,7200,46,-25,922,95,44,43,-51,13487,-29304,-19341,1703,253
253,7213,7223,41,-25,933,143,40,49,-43,13619,-29220,-19383,1712,254
254,7236,7245,46,-29,930,-143,35,42,-52,13499,-29280,-19341,1702,255
255,7258,7268,39,-27,926,63,43,53,-44,13427,-29010,-19311,1718,256
256,7281,7291,27,-21,928,127,46,46,-46,13421,-29256,-19287,1709,257
257,7304,7314,43,-17,916,-191,41,50,-46,13427,-29340,-19251,1708,258
258,7327,7337,43,-19,916,111,45,51,-45,13314,-29262,-19371,1716,259
259,7350,7360,43,-19,922,223,40,46,-45,13212,-29232,-19389,1719,260
260,7373,7382,28,-25,911,-239,44,45,-46,13397,-29184,-19502,1706,261
261,7395,7405,42,-29,930,207,45,49,-46,13308,-29298,-19329,1715,262
262,7418,7428,45,-19,931,0,46,46,-43,13523,-29387,-19269,1713,263
263,7446,7456,43,-20,921,-223,46,42,-45,13361,-29250,-19119,1707,264
264,7469,7479,40,-19,923,79,40,41,-52,13218,-29340,-18940,1703,265
265,7492,7502,39,-12,917,15,38,41,-46,13379,-29208,-19155,1705,266
266,7515,7525,47,-28,925,-63,45,44,-46,13361,-29142,-19299,1710,267
267,7538,7547,45,-20,937,191,44,46,-45,13433,-29316,-19389,1705,268
268,7560,7570,43,-32,921,-111,48,42,-48,13152,-29304,-19455,1712,269
269,7583,7593,28,-18,921,111,46,45,-46,13463,-29310,-19275,1715,270
270,7606,7616,43,-17,928,383,46,44,-49,13457,-29256,-19389,1708,271
271,7629,7639,43,-24,926,367,45,52,-45,13350,-29316,-19335,1717,272
272,7652,7661,41,-27,923,-63,45,43,-48,13397,-29298,-19347,1709,273
273,7674,7684,34,-21,921,0,42,49,-44,13272,-29262,-19335,1708,274
274,7697,7707,41,-22,924,-223,43,42,-43,13296,-29238,-19383,1714,275
275,7720,7730,39,-21,922,-287,42,41,-46,13248,-29459,-19203,1712,276
276,7748,7758,50,-32,946,527,49,54,-45,13463,-29340,-18946,1699,277
277,7771,7781,55,-46,943,0,37,41,-49,13373,-29364,-19191,1706,278
278,7794,7803,30,-19,923,319,46,48,-46,13350,-29154,-19299,1709,279
279,7816,7826,52,-19,931,-223,46,48,-44,13248,-29298,-19317,1708,280
280,7839,7849,52,-30,927,399,46,45,-42,13421,-29322,-18988,1703,281
281,7862,7872,34,-21,923,367,41,42,-46,13457,-29310,-19467,1714,282
282,7885,7895,45,-23,924,63,43,38,-42,13326,-29136,-19239,1701,283
283,7908,7918,34,-21,921,191,44,45,-44,13356,-29196,-19371,1708,284
284,7931,7940,46,-26,927,95,41,51,-46,13302,-29358,-19329,1713,285
285,7953,7963,40,-19,930,-223,45,43,-49,13445,-29046,-19269,1708,286
286,7976,7986,50,-19,929,287,37,43,-48,13266,-29190,-19311,1714,287
287,7999,8009,32,-28,917,-415,42,43,-44,13320,-29076,-19395,1712,288
288,8022,8032,45,-24,920,303,40,41,-48,13427,-29286,-19347,1707,289
289,8050,8060,44,-15,917,143,44,41,-45,13421,-29184,-19353,1696,290
290,8073,8083,43,-19,926,207,41,46,-46,13361,-29154,-19443,1697,291
291,8095,8105,50,-23,925,-175,48,50,-48,13254,-29334,-19335,1709,292
292,8118,8128,26,-18,923,-303,42,40,-49,13320,-29292,-19281,1699,293
293,8141,8151,48,-23,920,-47,43,51,-48,13356,-29423,-19215,1703,294
294,8164,8174,46,-36,926,-255,42,46,-46,13266,-29310,-19359,1711,295
295,8187,8197,44,-28,930,303,42,45,-48,13308,-29280,-19359,1705,296
296,8209,8219,34,-26,908,415,42,40,-44,13415,-29405,-19227,1706,297
297,8232,8242,52,-26,911,-47,43,50,-48,13236,-29387,-19323,1707,298
298,8255,8265,33,-28,921,-47,43,40,-46,13529,-29399,-19467,1701,299
299,8278,8288,43,-29,935,95,45,48,-48,13206,-29370,-19419,1718,300
300,8301,8311,50,-27,921,-63,42,46,-45,13517,-29435,-19089,1709,301
301,8324,8333,40,-31,928,255,44,43,-48,13356,-29364,-19383,1709,302
302,8352,8361,40,-24,920,-143,42,42,-44,13361,-29178,-19179,1697,303
303,8374,8384,45,-34,925,-31,43,46,-45,13290,-29256,-19185,1696,304
304,8397,8407,40,-25,928,-143,38,45,-45,13296,-29154,-19024,1709,305
305,8420,8430,43,-31,923,-111,43,45,-46,13445,-29262,-19431,1703,306
306,8443,8453,41,-28,931,-271,41,44,-44,13356,-29238,-19305,1701,307
307,8466,8476,36,-23,925,-303,40,45,-48,13218,-29100,-19281,1702,308
308,8489,8498,45,-32,934,-287,42,41,-48,13350,-29316,-19077,1702,309
309,8511,8521,44,-25,935,-287,46,48,-48,13302,-29208,-18766,1711,310
310,8547,8557,38,-29,925,207,45,42,-50,13475,-29214,-19071,1676,311
311,8570,8579,45,-22,926,559,45,42,-46,13403,-29130,-19347,1682,312
312,8592,8602,43,-27,926,-207,43,37,-48,13445,-28974,-19365,1696,313
313,8615,8625,45,-23,920,-287,44,50,-42,13385,-29214,-19353,1690,314
314,8638,8648,50,-31,920,47,41,44,-45,13385,-29052,-19425,1690,315
315,8661,8671,33,-21,928,-79,38,32,-45,13284,-29208,-19443,1704,316
316,8689,8699,39,-21,926,79,40,42,-44,13415,-29250,-19640,1680,317
317,8712,8721,44,-23,933,319,41,48,-48,13367,-29208,-19550,1698,318
318,8734,8744,42,-21,920,15,41,45,-45,13284,-29124,-19640,1696,319
319,8757,8767,52,-19,918,431,46,44,-49,13356,-29160,-19425,1695,320
320,8780,8790,46,-29,929,0,46,41,-46,13361,-29214,-19341,1706,321
321,8803,8813,42,-21,936,-175,36,50,-44,13361,-29364,-19431,1696,322
322,8826,8835,51,-28,926,191,48,42,-46,13146,-29148,-19694,1705,323
323,8848,8858,39,-27,930,127,43,43,-48,13050,-29328,-19443,1708,324
324,8871,8881,44,-23,934,-79,43,45,-49,13350,-29208,-19239,1700,325
325,8894,8904,49,-21,921,-111,44,44,-44,13523,-29166,-19359,1709,326
326,8917,8927,33,-23,925,511,38,40,-46,13356,-29094,-19359,1701,327
327,8940,8950,40,-30,921,431,44,49,-49,13427,-29082,-19197,1698,328
328,8963,8972,48,-21,926,223,37,46,-44,13373,-29028,-19239,1708,329
329,8991,9001,34,-23,919,175,38,48,-44,13397,-29292,-19107,1691,330
330,9013,9023,43,-25,933,255,43,44,-46,13224,-29130,-19550,1699,331
331,9036,9046,36,-21,925,367,40,44,-45,13212,-29274,-19574,1694,332
332,9059,9069,41,-23,926,415,43,46,-44,13224,-29310,-19658,1704,333
333,9082,9092,41,-26,925,63,35,42,-49,13361,-29154,-19688,1704,334
334,9105,9115,46,-23,922,303,36,41,-43,13367,-29130,-19401,1696,335
335,9128,9137,34,-23,919,127,44,42,-51,13332,-29142,-19059,1707,336
336,9150,9160,32,-34,935,-159,42,46,-51,13236,-29004,-19538,1704,337
337,9173,9183,50,-28,923,31,46,44,-46,13128,-28986,-19179,1694,338
338,9196,9206,38,-21,926,95,38,42,-46,13206,-29214,-19497,1706,339
339,9219,9229,36,-18,930,0,35,43,-50,13272,-29322,-19101,1701,340
340,9242,9251,47,-22,921,-95,38,48,-48,13200,-29166,-19275,1706,341
341,9264,9274,45,-21,920,-303,35,42,-44,13439,-29196,-19203,1711,342
342,9293,9302,37,-32,926,111,45,46,-48,13361,-29220,-19245,1685,343
343,9315,9325,44,-26,928,159,41,44,-48,13308,-29232,-19275,1701,344
344,9338,9348,43,-31,928,-207,40,46,-45,13110,-29148,-19113,1698,345
345,9361,9371,51,-22,930,-431,38,41,-48,13182,-29328,-18808,1700,346
346,9384,9394,39,-28,926,255,37,45,-50,13224,-29316,-18904,1702,347
347,9407,9416,46,-26,925,-175,44,41,-51,13445,-29160,-19065,1697,348
348,9429,9439,43,-26,924,319,41,43,-49,13379,-29046,-18916,1706,349
349,9452,9462,46,-22,926,-95,37,42,-48,13367,-29124,-18982,1707,350
350,9475,9485,42,-19,912,-79,38,46,-45,13350,-29208,-18850,1700,351
351,9498,9508,47,-29,920,175,44,37,-44,13218,-29130,-19006,1704,352
352,9521,9530,44,-33,926,-15,42,49,-44,13158,-29058,-19443,1700,353
353,9543,9553,36,-15,924,-47,41,45,-50,13290,-29226,-19101,1700,354
354,9566,9576,40,-22,920,671,44,43,-45,13218,-29160,-19155,1705,355
355,9594,9604,39,-22,926,-239,42,46,-45,13032,-28992,-19173,1696,356
356,9617,9627,39,-21,921,111,37,44,-48,13188,-29112,-19311,1695,357
357,9640,9650,39,-17,933,-255,40,43,-43,13182,-29052,-19353,1690,358
358,9663,9672,44,-16,903,0,35,45,-49,13302,-29112,-19095,1697,359
359,9685,9695,40,-35,924,-15,40,44,-52,13050,-29148,-19413,1700,360
360,9708,9718,40,-23,921,303,43,48,-46,13152,-29154,-19461,1697,361
361,9731,9741,43,-29,929,-303,42,45,-46,13218,-29208,-19485,1701,362
362,9794,9804,37,-26,925,-591,36,46,-52,13523,-29106,-19329,1611,363
363,9849,9859,48,-27,932,-447,36,36,-50,13212,-29064,-19293,1560,364
364,9910,9920,43,-28,928,-63,42,42,-49,13272,-29166,-18928,1519,365
365,9933,9943,44,-21,932,-143,42,42,-51,13529,-29076,-19305,1555,366
366,9956,9966,38,-29,922,-303,43,48,-45,13511,-29100,-19215,1586,367
367,9979,9989,49,-17,924,191,38,48,-46,13218,-29010,-19281,1617,368
368,10007,10017,48,-21,928,-111,43,42,-46,13278,-28944,-19365,1619,369
369,10030,10039,50,-25,933,575,43,42,-50,13356,-28980,-19155,1639,370
370,10052,10062,39,-24,924,207,49,41,-44,13296,-29082,-19437,1647,371
371,10075,10085,49,-15,919,95,43,36,-51,13266,-29118,-19287,1664,372
372,10098,10108,42,-26,918,-239,40,48,-49,13284,-29088,-19407,1676,373
373,10121,10131,39,-21,924,-319,38,43,-44,13230,-28980,-19179,1673,374
374,10144,10153,43,-21,937,143,45,44,-43,13032,-28992,-19269,1687,375
375,10166,10176,47,-21,926,-207,41,46,-45,13254,-29118,-19209,1688,376
376,10189,10199,41,-23,930,15,42,46,-45,13068,-28986,-19395,1681,377
377,10212,10222,43,-23,922,255,43,46,-46,13122,-29238,-19119,1700,378
378,10235,10244,47,-17,928,-111,46,48,-46,13379,-29334,-19089,1695,379
379,10257,10267,50,-21,914,287,42,48,-48,13248,-29262,-19018,1690,380
380,10280,10290,45,-22,924,-335,46,42,-49,13320,-29094,-19425,1698,381
381,10308,10318,41,-18,927,-623,43,40,-50,13415,-29226,-19036,1679,382
382,10331,10341,43,-22,925,159,38,43,-50,13134,-29214,-18952,1697,383
383,10354,10364,47,-15,921,63,38,45,-51,13332,-29226,-19054,1685,384
384,10377,10386,37,-22,929,-271,42,42,-46,13445,-29226,-19251,1692,385
385,10399,10409,47,-28,926,31,40,42,-46,13391,-29208,-19341,1699,386
386,10422,10432,41,-22,923,95,36,42,-48,13308,-29196,-19491,1695,387
387,10445,10455,38,-23,928,-95,35,42,-50,13350,-29346,-19485,1704,388
388,10468,10477,39,-23,930,255,48,48,-50,13433,-29274,-19616,1697,389
389,10490,10500,36,-15,935,-47,41,46,-48,13385,-29124,-19658,1696,390
390,10513,10523,38,-28,923,191,45,51,-48,13475,-29238,-19287,1711,391
391,10545,10555,42,-23,930,47,44,51,-44,13553,-29202,-19155,1674,392
392,10568,10578,39,-23,930,-159,43,46,-51,13451,-29501,-19209,1676,393
393,10591,10601,42,-17,917,-143,42,44,-44,13499,-29328,-19036,1682,394
394,10619,10629,46,-17,924,255,44,45,-49,13344,-29250,-19024,1678,395
395,10642,10651,43,-23,924,543,43,48,-51,13517,-29256,-19263,1681,396
396,10664,10674,47,-26,941,271,40,46,-48,13379,-29280,-19167,1690,397
397,10687,10697,58,-20,917,-191,40,46,-45,13439,-29184,-19251,1686,398
398,10710,10720,41,-21,925,143,42,42,-43,13445,-29292,-19371,1689,399
399,10733,10742,45,-19,929,143,43,45,-46,13493,-29316,-19473,1695,400
400,10755,10765,40,-25,923,431,42,51,-44,13415,-29328,-19389,1691,401
401,10778,10788,34,-26,919,-143,40,45,-46,13421,-29292,-19299,1700,402
402,10801,10811,46,-29,914,415,46,45,-48,13290,-29447,-19622,1699,403
403,10824,10833,45,-21,924,207,40,42,-50,13439,-29262,-19574,1694,404
404,10846,10856,43,-20,922,-223,43,42,-46,13254,-29058,-19173,1700,405
405,10869,10879,43,-18,918,207,37,41,-49,13505,-29172,-19353,1697,406
406,10892,10902,41,-26,920,687,44,46,-46,13379,-29058,-19329,1698,407
407,10927,10937,32,-21,918,175,45,45,-48,13356,-29004,-19293,1669,408
408,10950,10960,43,-30,929,0,43,46,-43,13379,-29160,-19173,1679,409
409,10973,10982,39,-27,929,63,42,43,-50,13397,-28921,-18994,1674,410
410,10995,11005,36,-26,926,111,40,50,-45,13403,-29268,-19311,1686,411
411,11018,11028,42,-19,916,111,41,45,-44,13278,-29465,-19125,1690,412
412,11041,11051,43,-19,922,-79,43,46,-45,13475,-29370,-19269,1692,413
413,11063,11073,46,-26,921,-207,41,48,-45,13505,-27669,-19257,1698,414
414,11086,11096,47,-21,915,-383,42,48,-46,13320,-29034,-19233,1691,415
415,11109,11119,41,-26,924,0,42,40,-50,13451,-29232,-19275,1699,416
416,11132,11142,41,-21,918,-159,41,46,-44,13463,-29016,-19155,1699,417
417,11154,11164,40,-28,928,207,40,45,-46,13391,-29094,-19353,1692,418
418,11177,11187,41,-28,913,-63,46,50,-46,13242,-29112,-19155,1700,419
419,11200,11210,45,-21,924,-79,38,38,-46,13326,-29148,-19251,1700,420
420,11223,11232,37,-23,920,-47,44,45,-44,13338,-29364,-19359,1692,421
421,11249,11259,38,-27,922,303,46,45,-45,13397,-29393,-19125,1691,422
422,11272,11281,43,-15,930,159,44,48,-49,13505,-29334,-19598,1693,423
423,11294,11304,38,-18,926,223,42,50,-48,13421,-29046,-19359,1688,424
424,11317,11327,52,-26,918,-127,41,48,-46,13553,-29334,-19455,1690,425
425,11340,11350,41,-11,923,191,36,44,-49,13403,-29304,-19335,1687,426
426,11363,11373,36,-26,930,63,43,45,-52,13332,-29292,-19401,1698,427
427,11385,11395,41,-28,922,-271,45,44,-45,13433,-29130,-19419,1692,428
428,11408,11418,36,-22,930,143,42,43,-49,13565,-29316,-19107,1696,429
429,11431,11441,41,-21,915,-495,46,36,-52,13302,-29298,-19359,1705,430
430,11454,11464,44,-22,926,655,46,44,-38,13356,-29064,-19173,1696,431
431,11477,11486,47,-13,922,-223,43,40,-46,13445,-29262,-19365,1701,432
432,11499,11509,39,-23,929,-223,36,48,-45,13403,-29250,-19407,1702,433
433,11522,11532,39,-20,916,319,44,44,-50,13595,-29286,-19239,1693,434
434,11550,11560,48,-28,936,-159,38,43,-49,13421,-29172,-19107,1690,435
435,11573,11583,36,-23,930,47,40,45,-43,13517,-29178,-19389,1686,436
436,11596,11606,41,-28,936,223,41,46,-46,13332,-29346,-19371,1694,437
437,11619,11629,41,-15,927,-303,38,42,-43,13308,-29286,-19191,1686,438
438,11642,11652,32,-23,924,239,42,50,-45,13361,-29310,-19502,1689,439
439,11665,11675,37,-26,924,143,40,40,-49,13379,-29220,-19048,1698,440
440,11688,11698,43,-23,924,-287,36,41,-50,13361,-29262,-19287,1695,441
441,11711,11721,35,-30,922,335,43,48,-52,13505,-29202,-19221,1693,442
442,11734,11744,32,-28,922,607,42,49,-42,13421,-29316,-19107,1696,443
443,11757,11767,41,-22,922,367,43,48,-45,13379,-29370,-19185,1690,444
444,11780,11789,43,-29,926,127,43,44,-43,13385,-29220,-19532,1698,445
445,11803,11812,41,-21,929,-143,44,46,-50,13469,-29298,-19281,1691,446
446,11826,11835,44,-32,920,-207,40,44,-48,13433,-29046,-19365,1693,447
447,11854,11864,39,-21,935,255,45,46,-46,13487,-29393,-19365,1676,448
448,11877,11886,42,-29,922,-31,44,45,-44,13439,-29399,-19329,1686,449
449,11900,11909,41,-28,917,207,43,44,-46,13272,-29477,-19143,1695,450
450,11923,11932,41,-26,935,143,42,44,-45,13421,-29298,-19323,1683,451
451,11945,11955,38,-32,925,287,41,46,-49,13224,-29292,-19251,1690,452
452,11968,11978,44,-26,927,255,43,48,-45,13571,-29489,-19335,1692,453
453,11991,12001,48,-33,932,303,42,46,-46,13481,-29304,-19137,1689,454
454,12014,12024,42,-18,922,63,44,48,-46,13517,-29040,-19071,1692,455
455,12037,12047,39,-18,915,31,43,48,-44,13350,-29148,-19592,1687,456
456,12060,12070,47,-22,917,63,42,46,-43,13278,-29160,-19389,1692,457
457,12083,12093,39,-25,927,95,42,48,-48,13487,-29214,-19245,1691,458
458,12106,12116,30,-32,913,-111,45,48,-48,13457,-29280,-19449,1686,459
459,12129,12139,37,-19,930,319,41,44,-48,13379,-29226,-19413,1697,460
460,12157,12167,43,-19,926,399,43,46,-48,13308,-29184,-19467,1679,461
461,12180,12190,41,-26,924,63,40,49,-43,13499,-29136,-19155,1687,462
462,12203,12213,47,-20,928,-79,42,42,-43,13158,-29196,-19383,1688,463
463,12226,12236,42,-24,922,319,46,45,-48,13314,-29124,-19173,1688,464
464,12249,12259,46,-30,922,-63,40,46,-43,13326,-29160,-19119,1692,465
465,12272,12282,45,-30,922,0,43,51,-46,13356,-29052,-19149,1692,466
466,12295,12304,38,-26,926,607,41,38,-46,13481,-29226,-19628,1693,467
467,12318,12327,45,-23,924,95,40,50,-44,13146,-29154,-19353,1689,468
468,12340,12350,32,-19,924,-31,38,44,-43,13146,-29178,-19269,1687,469
469,12363,12373,39,-20,920,-287,37,45,-46,13248,-29088,-19269,1697,470
470,12386,12396,42,-24,920,127,46,43,-49,13242,-29178,-19311,1686,471
471,12409,12419,47,-28,930,191,44,46,-48,13170,-29118,-19562,1693,472
472,12432,12442,39,-26,937,-79,38,44,-50,13290,-29130,-19814,1696,473
473,12460,12470,34,-22,924,511,38,42,-44,13278,-29178,-19497,1679,474
474,12483,12493,47,-29,929,-79,43,48,-45,13415,-28944,-19497,1681,475
475,12506,12516,41,-25,919,319,42,50,-48,13212,-29184,-19449,1676,476
476,12529,12539,53,-28,920,47,38,37,-49,13176,-29142,-19281,1686,477
477,12552,12562,40,-26,916,319,41,43,-43,13242,-29130,-19305,1688,478
478,12575,12585,34,-28,915,127,43,41,-42,13248,-29142,-19425,1689,479
479,12598,12608,41,-24,922,-175,44,45,-48,13242,-29022,-19167,1693,480
480,12621,12631,47,-29,911,-95,35,38,-49,13254,-29124,-19227,1686,481
481,12644,12653,42,-21,911,143,38,48,-42,13206,-29196,-19389,1690,482
482,12667,12676,39,-17,917,159,41,43,-44,12966,-29082,-19383,1695,483
483,12697,12707,40,-27,935,271,42,43,-44,13266,-29178,-19221,1677,484
484,12720,12730,41,-21,920,303,43,45,-48,13134,-29076,-19562,1675,485
485,12743,12752,40,-26,922,0,43,46,-45,13188,-29100,-19077,1679,486
486,12771,12781,39,-19,919,367,44,46,-51,13092,-29046,-19371,1675,487
487,12794,12804,38,-18,926,31,43,44,-49,13206,-30555,-19251,1676,488
488,12817,12826,36,-23,927,-111,44,41,-46,13463,-29028,-19239,1676,489
489,12840,12849,47,-19,930,-111,42,53,-51,13487,-29148,-19359,1679,490
490,12862,12872,38,-26,924,47,45,44,-49,13326,-29208,-19239,1690,491
491,12885,12895,43,-26,934,-79,45,45,-41,13445,-29208,-19125,1682,492
492,12908,12918,51,-27,929,-159,40,45,-46,13427,-29250,-19006,1685,493
493,12931,12941,45,-18,923,207,41,50,-51,13338,-29202,-19059,1694,494
494,12954,12964,46,-18,919,-47,42,43,-45,13296,-29136,-19137,1687,495
495,12977,12987,23,-26,917,111,42,43,-49,13511,-29274,-18946,1686,496
496,13000,13010,40,-21,922,287,40,40,-53,13302,-29220,-19197,1696,497
497,13023,13033,41,-26,929,0,38,48,-46,13290,-29238,-19101,1688,498
498,13046,13055,46,-29,941,159,51,57,-42,13290,-29142,-19377,1692,499
499,13074,13084,33,-16,924,463,50,44,-43,13248,-28998,-19233,1674,500
500,13097,13107,52,-30,921,207,38,44,-48,13361,-29100,-19281,1681,501
501,13120,13130,35,-23,914,127,41,48,-45,13296,-29106,-19137,1684,502
502,13143,13152,54,-20,929,15,43,41,-46,13326,-29028,-19311,1683,503
503,13166,13175,39,-27,923,527,44,46,-42,13559,-29058,-19239,1685,504
504,13188,13198,40,-24,924,-95,44,44,-42,13194,-29136,-19329,1683,505
505,13211,13221,37,-23,919,335,38,52,-44,13218,-28986,-19479,1685,506
506,13234,13244,50,-28,933,127,38,42,-48,13122,-28986,-19485,1697,507
507,13257,13267,40,-19,931,-79,40,49,-42,13182,-29124,-19281,1684,508
508,13280,13290,34,-24,917,127,38,34,-35,13367,-29094,-19233,1688,509
509,13303,13313,51,-21,926,143,48,46,-54,13314,-28927,-19365,1688,510
510,13326,13336,33,-15,924,-63,38,43,-43,13302,-29118,-19550,1684,511
511,13349,13358,47,-19,925,15,42,42,-45,13433,-29058,-19622,1694,512
512,13371,13381,43,-32,923,191,42,44,-46,13230,-29112,-19335,1682,513
513,13393,13403,48,-23,934,-319,40,41,-40,13385,-28974,-19383,1694,514
514,13416,13426,42,-19,930,559,42,53,-53,13194,-28861,-19305,1698,515
515,13439,13448,55,-26,924,15,38,40,-42,13224,-28879,-19419,1689,516
516,13462,13471,58,-23,923,191,43,44,-46,13302,-29022,-19275,1689,517
517,13484,13494,34,-21,925,-175,48,51,-43,13278,-28968,-19407,1698,518
518,13507,13517,47,-11,937,351,38,37,-44,13272,-28986,-19556,1685,519
519,13530,13540,54,-27,928,255,46,50,-48,13373,-29094,-19514,1697,520
520,13553,13563,48,-27,931,159,44,49,-52,13206,-29052,-19688,1687,521
521,13576,13586,36,-21,928,383,40,45,-48,13272,-29058,-19449,1690,522
522,13599,13608,43,-23,931,-479,44,48,-45,13338,-29058,-19239,1697,523
523,13622,13631,40,-36,916,-63,41,44,-43,13128,-29100,-19365,1686,524
524,13644,13654,46,-28,931,15,48,42,-43,13326,-29088,-19485,1697,525
525,13667,13677,32,-26,921,-159,45,53,-45,13451,-28974,-19443,1693,526
526,13695,13705,42,-30,917,-655,42,51,-46,13433,-29058,-19401,1675,527
527,13718,13728,35,-17,926,319,43,62,-50,13451,-29082,-19137,1685,528
528,13741,13751,58,-15,922,-175,46,45,-42,13481,-29130,-19395,1677,529
529,13764,13774,52,-20,927,-319,44,53,-45,13367,-29094,-19311,1689,530
530,13787,13797,39,-29,923,-79,43,50,-50,13367,-29148,-19431,1680,531
531,13810,13820,35,-28,922,207,41,40,-45,13421,-29070,-19305,1683,532
532,13833,13843,36,-23,921,-447,38,43,-45,13403,-28855,-19377,1686,533
533,13856,13866,36,-34,930,175,35,34,-40,13314,-29268,-19257,1685,534
534,13879,13888,41,-32,925,287,45,51,-37,13409,-29094,-19371,1690,535
535,13901,13911,54,-31,939,0,35,45,-50,13385,-29208,-19071,1685,536
536,13924,13934,42,-14,930,383,49,53,-46,13140,-29034,-19353,1680,537
537,13947,13957,50,-29,920,-319,43,44,-48,13272,-29094,-19449,1691,538
538,13970,13980,43,-17,925,-223,42,48,-50,13350,-29250,-19389,1683,539
539,13999,14008,34,-26,926,-399,41,49,-41,13284,-29154,-19700,1678,540
540,14021,14031,50,-12,929,111,36,42,-42,13164,-28933,-19263,1675,541
541,14044,14054,41,-14,928,-111,38,40,-45,13260,-29076,-19407,1682,542
542,14067,14077,34,-30,926,15,43,46,-43,13451,-29190,-19173,1687,543
543,14103,14112,45,-20,925,-335,46,46,-48,13421,-29130,-19377,1653,544
544,14125,14135,45,-19,932,15,41,46,-46,13344,-29094,-19311,1660,545
545,14148,14158,36,-27,927,31,41,56,-51,13194,-29070,-19508,1666,546
546,14171,14181,25,-10,927,15,32,22,-50,13403,-29124,-19514,1675,547
547,14194,14204,34,-13,925,-319,37,34,-46,13373,-29094,-19479,1673,548
548,14217,14227,47,-20,934,-111,45,43,-49,13284,-29244,-19167,1680,549
549,14240,14250,38,-19,926,239,37,42,-46,13260,-29310,-19383,1677,550
550,14263,14273,45,-26,911,527,42,44,-42,13182,-29226,-19502,1685,551
551,14286,14296,50,-21,930,319,50,50,-45,13074,-29166,-19544,1681,552
552,14314,14324,34,-20,930,175,44,45,-40,13284,-29340,-19359,1679,553
553,14337,14347,43,-25,922,-127,41,46,-49,13260,-29004,-19137,1667,554
554,14360,14369,39,-16,925,-79,43,46,-48,13290,-29058,-19113,1675,555
555,14383,14392,42,-26,923,-31,44,46,-44,13200,-27598,-19598,1683,556
556,14405,14415,41,-21,917,255,42,44,-44,13134,-29232,-19269,1675,557
557,14428,14438,41,-16,930,223,45,42,-50,13092,-29202,-19048,1685,558
558,14451,14461,40,-22,915,479,41,45,-43,13032,-29112,-19449,1682,559
559,14474,14484,46,-25,934,-527,41,38,-49,13218,-28825,-19407,1682,560
560,14497,14507,42,-22,930,159,40,51,-41,13278,-29082,-19664,1693,561
561,14520,14530,43,-15,928,143,42,38,-46,13152,-29058,-19335,1684,562
562,14543,14552,42,-21,926,-303,45,44,-42,13284,-29160,-19251,1679,563
563,14566,14575,45,-19,922,95,46,48,-43,13290,-29220,-19371,1691,564
564,14589,14598,47,-14,921,415,37,43,-46,13152,-29154,-19514,1683,565
565,14617,14627,30,-22,918,143,42,45,-46,13200,-29376,-19580,1673,566
566,14640,14649,44,-26,928,255,37,42,-45,13212,-29328,-19808,1673,567
567,14663,14672,40,-23,926,159,42,44,-45,13020,-29304,-19395,1681,568
568,14685,14695,39,-29,925,47,40,52,-46,13200,-29148,-19532,1679,569
569,14708,14718,41,-23,921,-447,38,45,-44,13086,-29262,-19688,1675,570
570,14731,14741,42,-29,926,-47,43,36,-48,13206,-29058,-19443,1690,571
571,14754,14764,47,-22,927,-127,44,48,-45,13152,-29160,-19443,1680,572
572,14777,14787,46,-43,938,143,37,36,-42,13326,-29016,-19473,1680,573
573,14800,14810,39,-21,927,191,38,54,-42,13248,-29052,-19479,1691,574
574,14823,14832,39,-25,923,319,42,46,-49,13218,-29046,-19365,1680,575
575,14845,14855,37,-23,927,15,42,46,-42,13320,-28986,-19526,1693,576
576,14868,14878,38,-22,920,623,38,38,-45,13200,-28992,-19610,1683,577
577,14891,14901,43,-21,911,-255,41,43,-44,13134,-29118,-19491,1681,578
578,14919,14929,43,-17,939,367,44,42,-44,13302,-28897,-19778,1678,579
579,14942,14952,39,-26,921,415,43,45,-48,13338,-30549,-19784,1673,580
580,14965,14975,41,-18,921,63,41,46,-48,13116,-29136,-19419,1681,581
581,14988,14998,30,-32,917,0,43,49,-46,13272,-28974,-19622,1672,582
582,15011,15021,34,-15,924,-159,43,36,-42,13188,-29088,-19287,1677,583
583,15034,15043,34,-23,922,-143,43,46,-44,13278,-29423,-19113,1687,584
584,15056,15066,42,-28,924,271,37,48,-49,13326,-29250,-19233,1675,585
585,15079,15089,39,-20,918,-319,43,45,-46,13529,-29316,-19449,1688,586
586,15102,15112,47,-10,961,-95,48,58,-57,13224,-29262,-19227,1687,587
587,15125,15135,69,-43,892,319,43,45,-41,13302,-29136,-19449,1678,588
588,15148,15158,52,-17,929,31,48,51,-44,13302,-29202,-19598,1691,589
589,15171,15181,40,-25,924,95,35,37,-42,13367,-29274,-19383,1684,590
590,15194,15203,43,-23,918,47,51,49,-45,13284,-29214,-19311,1685,591
591,15222,15232,41,-28,920,15,37,43,-49,13421,-29382,-19419,1669,592
592,15245,15254,39,-21,924,0,41,43,-45,13248,-29280,-19586,1678,593
593,15267,15277,50,-33,922,0,37,44,-45,13338,-29172,-19269,1679,594
594,15290,15300,45,-25,922,79,40,45,-50,13212,-29100,-19209,1675,595
595,15313,15323,42,-23,915,175,41,46,-50,13320,-29172,-19101,1685,596
596,15336,15346,40,-23,925,207,44,48,-53,13056,-29064,-19281,1679,597
597,15359,15369,36,-20,928,319,43,44,-49,13152,-29190,-19353,1682,598
598,15382,15392,44,-25,923,-79,43,44,-49,13194,-29220,-19323,1689,599
599,15405,15414,42,-24,924,-95,46,42,-49,13188,-29334,-19299,1682,600
600,15427,15437,41,-29,920,-31,37,42,-49,13445,-29148,-19401,1680,601
601,15450,15460,39,-23,926,-47,43,51,-45,13140,-29040,-19293,1694,602
602,15473,15483,43,-26,930,319,41,46,-46,13314,-29178,-19359,1678,603
603,15496,15506,34,-24,924,255,38,41,-53,13308,-29262,-19305,1689,604
604,15532,15542,43,-19,931,127,42,45,-46,13026,-29232,-19275,1655,605
605,15555,15564,39,-27,912,-95,44,43,-49,13182,-29352,-19119,1659,606
606,15577,15587,48,-29,924,367,41,45,-44,13230,-29399,-19281,1671,607
607,15600,15610,50,-22,938,-447,45,43,-46,13314,-29364,-19359,1670,608
608,15623,15633,38,-23,924,-63,42,46,-49,13062,-29304,-19329,1666,609
609,15646,15656,34,-21,935,-175,40,43,-46,13212,-29280,-19089,1676,610
610,15669,15679,43,-28,932,-319,40,41,-48,12996,-29423,-19341,1680,611
611,15692,15701,39,-32,923,47,45,50,-48,13116,-29208,-19383,1672,612
612,15714,15724,41,-17,921,63,38,40,-49,13104,-29106,-19700,1684,613
613,15737,15747,47,-22,928,63,46,38,-43,13104,-29166,-19293,1676,614
614,15760,15770,47,-23,922,15,48,48,-45,13170,-29160,-19161,1678,615
615,15783,15793,39,-26,915,127,46,48,-51,13128,-29136,-19395,1689,616
616,15806,15816,43,-20,935,255,41,34,-49,13176,-29046,-19113,1679,617
617,15829,15838,38,-26,928,-255,44,42,-50,13128,-29166,-19179,1681,618
618,15857,15866,39,-19,915,143,45,50,-50,13314,-29232,-19353,1675,619
619,15879,15889,43,-22,931,-351,45,45,-48,13224,-29166,-18958,1675,620
620,15902,15912,41,-21,932,223,45,48,-50,13104,-29196,-18970,1679,621
621,15925,15935,44,-23,929,-95,46,40,-50,13290,-29346,-19329,1673,622
622,15948,15958,49,-25,915,0,42,46,-46,13110,-29298,-19089,1686,623
623,15971,15981,30,-21,923,-303,35,46,-46,13284,-29028,-19377,1674,624
624,15994,16003,45,-26,923,159,42,45,-49,13230,-29094,-19508,1676,625
625,16016,16026,44,-19,922,271,46,41,-51,13266,-29070,-19107,1689,626
626,16039,16049,45,-24,920,447,44,37,-50,13308,-29112,-19089,1685,627
627,16062,16072,41,-25,926,159,41,46,-46,13379,-29184,-19012,1685,628
628,16085,16095,39,-26,924,-79,40,44,-45,13170,-29112,-19389,1679,629
629,16108,16118,41,-23,917,143,37,43,-44,13266,-29082,-19401,1676,630
630,16140,16150,49,-28,935,-47,42,45,-49,13134,-29292,-19233,1657,631
631,16168,16178,41,-17,925,-175,45,44,-45,13427,-29298,-19113,1655,632
632,16191,16201,40,-28,926,63,44,41,-54,13218,-29274,-19179,1656,633
633,16214,16224,47,-16,925,-175,35,46,-44,13110,-29322,-19263,1669,634
634,16237,16247,47,-25,928,-351,42,46,-49,13367,-29004,-19251,1668,635
635,16260,16269,36,-23,924,111,40,44,-50,13415,-29154,-19161,1668,636
636,16283,16292,31,-16,918,239,42,37,-45,13176,-29244,-19119,1679,637
637,16305,16315,39,-23,931,191,49,41,-50,13212,-29100,-19257,1676,638
638,16328,16338,38,-27,927,527,40,44,-44,13134,-29154,-19125,1680,639
639,16351,16361,45,-18,928,-95,45,40,-49,13128,-29268,-19281,1683,640
640,16374,16384,44,-23,926,463,40,44,-46,13116,-29148,-19592,1671,641
641,16397,16407,38,-21,922,-255,41,40,-48,13098,-29286,-19544,1678,642
642,16420,16430,40,-16,924,207,44,42,-43,13164,-29364,-19341,1685,643
643,16443,16452,38,-22,925,143,42,45,-46,13248,-29154,-19341,1672,644
644,16471,16481,41,-31,928,143,35,41,-52,13302,-29154,-19574,1669,645
645,16494,16503,38,-22,917,15,41,42,-48,13200,-29142,-19221,1669,646
646,16516,16526,47,-18,926,127,37,40,-51,13050,-29106,-19479,1675,647
647,16539,16549,38,-14,919,0,35,42,-49,13194,-29160,-19233,1675,648
648,16562,16572,42,-26,926,431,37,45,-48,13338,-29100,-19628,1674,649
649,16585,16595,43,-30,926,207,43,42,-48,13493,-29112,-19634,1678,650
650,16608,16618,34,-17,923,527,44,45,-49,13308,-29112,-19329,1679,651
651,16631,16640,45,-19,922,127,42,43,-51,13403,-29052,-19347,1682,652
652,16653,16663,45,-21,922,-47,43,45,-50,13290,-29028,-19437,1683,653
653,16676,16686,39,-36,925,287,41,43,-45,13158,-29088,-19131,1680,654
654,16699,16709,41,-31,924,-159,38,43,-48,13344,-29399,-19389,1681,655
655,16722,16732,31,-26,928,0,42,40,-49,13224,-29124,-19473,1684,656
656,16745,16755,39,-17,922,63,43,44,-48,13278,-29142,-19137,1680,657
657,16773,16783,54,-26,976,303,20,4,-48,13194,-29064,-19167,1662,658
658,16796,16806,16,-5,872,15,27,44,-52,13080,-29244,-19341,1674,659
659,16819,16828,39,-41,912,-399,43,41,-41,13248,-29465,-19299,1673,660
660,16841,16851,39,-17,918,-63,34,40,-50,13242,-29196,-19299,1672,661
661,16864,16874,40,-23,921,-111,38,41,-50,13110,-29094,-19497,1678,662
662,16887,16897,52,-16,937,223,40,38,-54,13188,-29016,-19275,1682,663
663,16910,16920,37,-30,930,95,42,38,-43,13176,-29082,-19395,1678,664
664,16933,16943,35,-23,942,-143,51,46,-49,13134,-29184,-19155,1685,665
665,16956,16965,44,-24,919,367,30,44,-48,13266,-29040,-19389,1677,666
666,16978,16988,43,-27,927,-239,41,49,-48,13164,-29136,-19317,1675,667
667,17001,17011,37,-22,920,-159,44,42,-51,13056,-29142,-19491,1680,668
668,17024,17034,84,-14,926,191,52,72,-68,13140,-28968,-19305,1674,669
669,17047,17057,45,-40,937,79,53,64,-45,13140,-28867,-19305,1693,670
670,17075,17085,43,-15,933,-95,36,41,-50,13230,-28921,-19377,1665,671
671,17098,17108,42,-17,917,191,42,38,-46,13026,-28950,-19251,1677,672
672,17121,17131,35,-25,922,-111,38,45,-52,13224,-28807,-19520,1672,673
673,17144,17153,44,-17,922,527,45,48,-45,13236,-29034,-19377,1671,674
674,17166,17176,43,-21,914,15,40,45,-45,13272,-28885,-19443,1676,675
675,17189,17199,38,-17,925,0,41,44,-46,13278,-29028,-19461,1676,676
676,17212,17222,38,-19,929,15,43,41,-46,13308,-28962,-19502,1680,677
677,17235,17245,36,-23,926,143,45,51,-44,13170,-29184,-19526,1685,678
678,17258,17268,51,-21,929,95,40,38,-45,13224,-29220,-19467,1670,679
679,17281,17290,34,-21,926,15,38,44,-48,13092,-29220,-19293,1683,680
680,17303,17313,39,-29,926,255,38,44,-48,13290,-28992,-19700,1685,681
681,17326,17336,43,-23,926,127,44,50,-45,13248,-29148,-19263,1675,682
682,17349,17359,39,-22,926,143,45,52,-45,13409,-29082,-19574,1681,683
683,17377,17387,37,-24,924,47,42,46,-46,13326,-29178,-19335,1666,684
684,17400,17410,43,-23,928,-303,44,45,-46,13391,-28998,-19371,1676,685
685,17423,17433,33,-14,911,-111,45,45,-44,13361,-29214,-19239,1671,686
686,17446,17455,32,-20,923,207,54,67,-46,13218,-29004,-19311,1674,687
687,17468,17478,34,-15,926,-79,50,44,-51,13224,-29387,-19694,1677,688
688,17491,17501,40,-23,918,399,42,43,-46,13248,-29316,-19443,1675,689
689,17514,17524,36,-24,917,31,45,44,-45,13140,-29028,-19514,1680,690
690,17537,17547,41,-23,913,367,45,42,-45,13254,-29166,-19604,1683,691
691,17560,17570,28,-32,918,127,34,40,-43,13086,-29310,-19538,1670,692
692,17583,17593,34,-17,922,-255,48,50,-50,13350,-29160,-19473,1684,693
693,17606,17615,50,-26,925,415,44,40,-52,13194,-29459,-19712,1676,694
694,17628,17638,42,-28,928,447,38,41,-54,13110,-29178,-19808,1679,695
695,17651,17661,45,-19,926,-271,45,43,-51,13134,-29070,-19592,1685,696
696,17679,17689,46,-26,932,63,42,37,-46,13116,-29238,-19491,1666,697
697,17702,17712,31,-19,923,-79,41,40,-48,13092,-29226,-19538,1673,698
698,17725,17735,47,-19,922,-95,45,50,-51,13284,-29202,-19556,1666,699
699,17748,17758,31,-21,914,111,44,42,-52,13224,-29280,-19437,1673,700
700,17771,17780,46,-24,926,-367,45,50,-50,13559,-29154,-19485,1672,701
701,17793,17803,38,-20,924,335,43,45,-45,13505,-29226,-19257,1672,702
702,17816,17826,39,-23,928,271,37,45,-53,13475,-29376,-19437,1684,703
703,17839,17849,41,-29,927,287,38,41,-52,13421,-29298,-19491,1675,704
704,17862,17872,42,-21,930,0,43,42,-41,13439,-29118,-19520,1679,705
705,17885,17894,39,-27,928,303,42,45,-51,13284,-29262,-19275,1677,706
706,17907,17917,35,-17,920,95,38,44,-45,13260,-29208,-19473,1671,707
707,17930,17940,38,-25,916,31,42,45,-46,13326,-29160,-19455,1677,708
708,17953,17963,41,-36,920,31,37,45,-46,13242,-29280,-19275,1680,709
709,17981,17991,45,-19,922,0,43,45,-50,13230,-29286,-19395,1670,710
710,18004,18014,42,-23,928,31,40,41,-52,13074,-29298,-19724,1670,711
711,18027,18037,41,-23,920,303,37,43,-46,13230,-29376,-19598,1670,712
712,18050,18059,36,-21,921,-111,41,44,-46,13206,-29316,-19646,1680,713
713,18072,18082,31,-15,933,223,40,36,-46,13218,-29280,-19365,1674,714
714,18095,18105,41,-21,928,671,44,45,-51,13356,-29112,-19538,1674,715
715,18118,18128,37,-26,916,-207,41,43,-48,13367,-28992,-19682,1679,716
716,18141,18151,37,-30,935,79,42,38,-46,13338,-29142,-19820,1672,717
717,18164,18173,45,-15,928,-47,36,37,-46,13266,-29352,-19592,1684,718
718,18186,18196,43,-23,928,239,42,36,-52,13493,-29100,-19658,1677,719
719,18209,18219,38,-22,933,303,38,44,-51,13415,-29346,-19664,1671,720
720,18232,18242,47,-18,924,95,44,42,-48,13469,-29501,-19048,1683,721
721,18255,18265,36,-28,923,-431,42,42,-51,13308,-29387,-19562,1678,722
722,18278,18287,35,-24,926,15,45,53,-46,13421,-29429,-19431,1671,723
723,18306,18315,51,-28,927,607,44,44,-45,13200,-29220,-19491,1666,724
724,18328,18338,36,-19,920,335,45,38,-49,13308,-29166,-19215,1668,725
725,18359,18368,40,-20,926,-191,40,44,-50,13152,-29226,-19125,1644,726
726,18381,18391,44,-19,920,95,44,42,-43,13254,-29274,-19305,1670,727
727,18404,18414,32,-27,922,543,37,50,-46,13188,-29322,-19089,1666,728
728,18427,18437,43,-23,922,-31,42,49,-44,13344,-29214,-19119,1659,729
729,18450,18460,40,-19,917,-143,44,53,-49,13439,-29477,-19341,1670,730
730,18472,18482,36,-35,924,47,43,46,-44,13308,-29411,-19275,1672,731
731,18495,18505,39,-22,918,143,44,48,-46,13421,-29501,-19095,1672,732
732,18518,18528,37,-31,933,511,48,42,-45,13361,-29370,-19281,1673,733
733,18541,18551,43,-23,928,-95,42,44,-53,13361,-29304,-19263,1672,734
734,18564,18573,36,-17,927,351,40,36,-49,13242,-29447,-19520,1679,735
735,18586,18596,33,-13,920,95,53,50,-46,13433,-29334,-19299,1682,736
736,18615,18624,28,-17,920,-335,44,35,-48,13122,-29322,-19197,1668,737
737,18637,18647,35,-21,910,15,42,46,-44,13218,-29310,-19197,1668,738
738,18660,18670,25,-23,924,383,48,50,-50,13146,-29322,-19616,1671,739
739,18683,18693,39,-28,915,127,41,38,-49,13146,-29340,-19473,1669,740
740,18706,18716,32,-27,927,-79,43,48,-45,13020,-29274,-19215,1671,741
741,18729,18738,38,-24,925,303,43,45,-46,13260,-29405,-19526,1672,742
742,18751,18761,41,-29,921,159,41,41,-50,13098,-29262,-19652,1678,743
743,18774,18784,39,-23,922,399,42,44,-51,13134,-29334,-19598,1677,744
744,18797,18807,47,-20,928,-79,38,38,-45,13266,-29393,-19018,1673,745
745,18820,18830,40,-28,920,-63,35,42,-49,13206,-29340,-19317,1682,746
746,18843,18852,47,-23,924,-127,33,49,-46,13481,-29214,-19520,1673,747
747,18865,18875,43,-29,922,-47,43,42,-44,13218,-29190,-19485,1678,748
748,18888,18898,43,-21,928,-31,44,46,-46,13158,-29346,-19473,1678,749
749,18916,18926,41,-23,915,223,45,43,-44,13104,-29244,-19425,1663,750
750,18939,18949,37,-26,917,15,40,48,-51,13152,-29334,-19520,1664,751
751,18962,18972,44,-18,929,207,42,49,-51,13206,-29136,-19431,1663,752
752,18985,18995,37,-22,928,0,41,41,-46,13104,-29202,-19467,1678,753
753,19007,19017,32,-26,922,-47,42,41,-49,13373,-29382,-19227,1669,754
754,19030,19040,47,-23,928,111,41,38,-49,13350,-29154,-19299,1674,755
755,19053,19063,37,-13,917,303,33,34,-49,13218,-29154,-19203,1680,756
756,19076,19086,36,-23,929,159,44,42,-44,13332,-29196,-19065,1667,757
757,19099,19109,45,-30,926,-319,43,34,-43,13152,-29244,-19179,1681,758
758,19122,19132,36,-17,925,0,40,45,-49,13176,-29202,-19048,1675,759
759,19145,19154,42,-28,925,111,44,43,-46,13361,-29130,-19197,1673,760
760,19167,19177,39,-21,924,31,41,35,-49,13445,-29136,-19287,1684,761
761,19190,19200,45,-26,932,79,33,37,-50,13158,-29154,-19215,1680,762
762,19218,19228,56,-23,933,143,41,44,-49,13338,-29292,-19012,1667,763
763,19241,19251,50,-23,930,63,46,51,-48,13248,-29064,-19167,1660,764
764,19264,19274,49,-20,928,319,40,46,-44,13104,-29130,-19395,1670,765
765,19287,19296,47,-26,929,207,38,52,-48,13098,-29040,-19071,1674,766
766,19309,19319,36,-19,924,-95,37,49,-42,12960,-29262,-19155,1668,767
767,19332,19342,43,-21,936,-239,42,43,-46,13146,-29058,-19323,1678,768
768,19355,19365,31,-25,934,335,42,51,-43,12960,-29154,-19311,1675,769
769,19378,19388,51,-19,920,255,35,38,-46,13116,-29196,-19473,1672,770
770,19401,19410,36,-20,926,-15,48,48,-43,13062,-29166,-19251,1681,771
771,19423,19433,38,-26,926,-367,42,42,-42,13056,-29178,-19215,1671,772
772,19446,19456,34,-22,928,-47,44,42,-50,13044,-29328,-19479,1675,773
773,19469,19479,43,-20,927,-79,45,49,-46,13038,-29076,-19275,1680,774
774,19492,19502,32,-22,922,-383,41,42,-48,13224,-29405,-19329,1673,775
775,19520,19530,43,-22,921,-223,40,45,-49,13062,-29250,-19101,1661,776
776,19555,19565,38,-26,927,-175,41,48,-41,13062,-29088,-19167,1634,777
777,19578,19588,43,-34,922,0,41,43,-45,13110,-29268,-19215,1641,778
778,19601,19611,53,-27,930,-207,41,43,-48,13236,-29142,-19191,1656,779
779,19624,19634,44,-23,928,143,50,49,-46,13230,-29214,-19167,1656,780
780,19647,19656,41,-19,917,-271,46,44,-43,13182,-29160,-18958,1669,781
781,19669,19679,41,-16,923,239,41,44,-45,13176,-29238,-19556,1664,782
782,19692,19702,41,-24,916,111,45,41,-43,13385,-29178,-19538,1663,783
783,19715,19725,42,-19,933,-431,41,43,-49,13170,-29304,-19497,1672,784
784,19738,19748,45,-24,922,-239,42,41,-49,13344,-29178,-19419,1667,785
785,19761,19770,44,-19,923,-127,40,53,-48,13116,-29160,-19341,1663,786
786,19783,19793,45,-26,926,0,41,45,-51,13391,-29274,-19299,1673,787
787,19806,19816,43,-24,916,383,40,41,-46,13164,-29268,-19580,1671,788
788,19834,19844,43,-22,923,447,41,44,-48,13176,-29088,-19257,1667,789
789,19857,19867,37,-28,926,-95,42,44,-45,13140,-29106,-19425,1662,790
790,19880,19890,41,-23,921,15,44,44,-44,13152,-29202,-19197,1665,791
791,19902,19912,37,-22,926,15,43,44,-41,13242,-29160,-19514,1670,792
792,19925,19935,41,-30,933,95,45,38,-51,13152,-29058,-19353,1665,793
793,19948,19958,45,-17,926,15,42,44,-46,13296,-29058,-19323,1672,794
794,19971,19981,45,-21,921,415,46,48,-48,13152,-29148,-19365,1674,795
795,19994,20003,42,-32,923,415,41,41,-46,13146,-29220,-19383,1671,796
796,20016,20026,45,-26,918,95,42,45,-48,13182,-29244,-19532,1680,797
797,20039,20049,43,-28,932,47,40,42,-46,13194,-29244,-19245,1669,798
798,20062,20072,43,-17,922,-271,48,50,-44,13158,-29196,-19598,1670,799
799,20085,20095,45,-24,920,-207,41,43,-44,13314,-29160,-19353,1683,800
800,20107,20117,42,-25,919,-79,43,42,-48,13254,-29310,-19610,1674,801
801,20136,20145,31,-23,924,127,40,44,-48,13391,-29268,-19251,1663,802
802,20158,20168,40,-29,933,95,38,42,-43,13272,-29136,-19491,1661,803
803,20181,20191,38,-20,926,-239,45,43,-43,13302,-29064,-19580,1670,804
804,20204,20214,40,-30,924,0,42,49,-51,13421,-29166,-19676,1667,805
805,20227,20236,36,-28,921,-143,38,45,-46,13517,-29094,-19347,1666,806
806,20249,20259,41,-20,926,511,41,45,-46,13242,-29244,-19550,1676,807
807,20272,20282,42,-23,924,287,37,38,-43,13116,-29136,-19371,1668,808
808,20295,20305,37,-35,920,-175,42,44,-45,13200,-29082,-19347,1672,809
809,20318,20328,36,-19,913,-79,40,48,-50,13074,-29178,-19281,1681,810
810,20341,20350,41,-26,928,527,42,40,-45,13134,-29106,-19335,1673,811
811,20363,20373,49,-21,930,-287,41,45,-42,13266,-29040,-19449,1668,812
812,20386,20396,30,-20,929,-31,41,41,-52,13242,-29238,-19550,1678,813
813,20409,20419,39,-18,930,-79,36,41,-46,13158,-29124,-19550,1668,814
814,20437,20447,42,-33,905,-127,46,49,-44,13308,-29304,-19203,1667,815
815,20460,20469,34,-24,927,0,46,42,-46,13385,-29184,-19574,1662,816
816,20482,20492,44,-32,931,-63,43,44,-46,13332,-29082,-19502,1671,817
817,20505,20515,45,-22,922,0,41,50,-50,13326,-29028,-19724,1674,818
818,20528,20538,38,-20,925,47,44,45,-40,13260,-29190,-19365,1662,819
819,20551,20561,47,-18,926,175,44,43,-45,13367,-29202,-19353,1678,820
820,20574,20583,39,-28,933,159,42,44,-49,13086,-29016,-19377,1666,821
821,20596,20606,39,-26,930,351,43,48,-49,13170,-29118,-19407,1671,822
822,20619,20629,42,-23,918,-79,41,45,-46,13361,-29220,-19215,1677,823
823,20642,20652,40,-19,923,-79,48,48,-48,13248,-29232,-19107,1665,824
824,20665,20675,36,-20,924,111,46,42,-46,13350,-29172,-19598,1672,825
825,20687,20697,45,-30,934,0,44,46,-45,13278,-29196,-19263,1677,826
826,20710,20720,40,-21,926,15,38,46,-45,13361,-29076,-19467,1669,827
827,20733,20743,45,-26,926,15,46,50,-48,13487,-29112,-19269,1685,828
828,20760,20770,48,-32,933,335,40,48,-49,13308,-29136,-19287,1653,829
829,20783,20793,43,-18,923,303,44,44,-44,13469,-29322,-19281,1670,830
830,20806,20815,43,-22,930,191,43,42,-43,13254,-29160,-19281,1668,831
831,20828,20838,40,-26,928,143,42,46,-51,13236,-29328,-19233,1663,832
832,20851,20861,39,-17,925,47,46,43,-45,13122,-29076,-19179,1682,833
833,20874,20884,38,-19,926,-207,43,43,-41,13188,-29310,-19077,1664,834
834,20897,20906,45,-24,922,255,41,43,-46,13367,-29202,-19101,1666,835
835,20919,20929,42,-17,924,-175,43,42,-50,13326,-29280,-19173,1675,836
836,20942,20952,47,-27,924,63,35,41,-44,13134,-28956,-19263,1667,837
837,20965,20975,38,-23,931,0,42,42,-45,13415,-29058,-19155,1676,838
838,20988,20997,34,-21,920,-127,40,43,-45,13254,-29118,-19580,1679,839
839,21010,21020,43,-24,922,-223,43,45,-43,13164,-29280,-19502,1669,840
840,21033,21043,41,-18,937,-31,49,43,-48,13200,-29178,-19257,1679,841
841,21069,21079,43,-31,924,191,45,44,-48,13248,-29262,-19461,1640,842
842,21092,21102,42,-24,922,-191,46,44,-45,13230,-28950,-19275,1647,843
843,21115,21124,34,-26,929,111,40,42,-51,13284,-29040,-19347,1654,844
844,21137,21147,37,-21,926,-63,41,48,-46,13302,-29184,-19251,1657,845
845,21160,21170,38,-26,914,79,32,45,-44,13403,-29190,-19281,1658,846
846,21190,21200,40,-26,932,159,37,46,-45,13284,-29178,-19173,1644,847
847,21213,21223,38,-28,924,-239,43,42,-46,13308,-29244,-19323,1652,848
848,21236,21246,38,-26,926,-319,49,48,-48,13332,-29220,-19562,1661,849
849,21259,21268,41,-25,919,287,37,41,-42,13314,-29268,-19305,1652,850
850,21281,21291,40,-19,921,0,41,41,-48,13421,-29034,-19191,1670,851
851,21304,21314,33,-16,931,0,49,45,-49,13092,-29148,-19371,1672,852
852,21327,21337,39,-20,920,95,42,50,-44,13134,-29088,-19401,1660,853
853,21350,21360,35,-29,941,-399,41,40,-48,13218,-28771,-19209,1673,854
854,21378,21388,46,-23,915,-175,45,44,-51,13044,-29016,-19006,1652,855
855,21401,21411,38,-26,923,319,42,48,-46,13182,-28891,-19173,1663,856
856,21424,21434,41,-18,920,63,36,45,-45,13164,-29040,-19413,1665,857
857,21447,21456,42,-21,930,-63,42,49,-45,13140,-29160,-19443,1664,858
858,21470,21479,41,-23,926,-127,40,45,-44,13224,-29010,-19425,1672,859
859,21492,21502,36,-16,915,-127,38,45,-45,13110,-29172,-19365,1661,860
860,21515,21525,32,-19,922,79,44,45,-46,13146,-28885,-19700,1675,861
861,21538,21548,40,-24,920,-239,38,43,-48,13134,-29310,-19532,1665,862
862,21561,21571,41,-23,928,-47,43,48,-50,13200,-29250,-19431,1665,863
863,21584,21594,34,-26,926,-239,43,43,-49,13338,-29064,-19383,1681,864
864,21607,21617,44,-17,930,-239,43,45,-49,13577,-29142,-19239,1668,865
865,21630,21640,36,-22,906,415,40,43,-49,13308,-29040,-19323,1666,866
866,21653,21663,39,-23,928,-63,40,46,-51,13308,-29058,-19287,1669,867
867,21681,21691,42,-22,927,0,38,44,-51,13194,-29058,-19491,1659,868
868,21714,21723,45,-25,935,15,50,45,-45,13361,-29004,-19341,1630,869
869,21737,21746,41,-18,935,143,35,44,-46,13188,-29154,-19461,1644,870
870,21760,21769,50,-24,928,271,43,43,-43,13344,-29118,-19652,1642,871
871,21782,21792,39,-26,912,0,45,46,-46,13314,-29046,-19371,1657,872
872,21805,21815,34,-21,922,-63,40,44,-46,13188,-29088,-19377,1662,873
873,21828,21838,37,-21,931,-95,40,49,-46,13248,-29052,-19838,1658,874
874,21851,21861,45,-10,926,-271,44,41,-50,13194,-29016,-19628,1668,875
875,21874,21884,36,-23,925,-415,42,44,-46,13308,-28986,-19341,1665,876
876,21897,21907,38,-21,922,-431,42,43,-45,13403,-29130,-19377,1662,877
877,21920,21930,47,-30,930,431,45,45,-48,13224,-28956,-19353,1669,878
878,21943,21953,45,-23,910,-239,41,41,-43,13236,-28861,-19580,1663,879
879,21966,21976,36,-20,924,-271,42,45,-43,13254,-28950,-19395,1670,880
880,21994,22004,47,-19,929,47,43,44,-48,13284,-29124,-19197,1649,881
881,22017,22027,37,-13,915,15,37,45,-46,13122,-28992,-19209,1667,882
882,22040,22050,46,-23,920,207,46,46,-45,13248,-28849,-19251,1668,883
883,22063,22073,44,-22,930,255,38,40,-51,13116,-28974,-19407,1659,884
884,22086,22096,40,-24,924,-63,44,38,-44,13188,-29088,-19491,1672,885
885,22109,22119,32,-26,926,111,48,51,-46,13230,-29004,-19239,1661,886
886,22132,22142,50,-32,926,463,41,41,-46,13332,-28986,-19281,1665,887
887,22155,22165,38,-17,926,191,44,42,-48,13266,-29034,-19335,1672,888
888,22178,22187,42,-21,927,415,36,44,-49,13314,-29070,-19275,1662,889
889,22201,22210,36,-31,923,495,35,44,-44,13475,-28998,-19251,1671,890
890,22224,22233,28,-30,936,319,41,45,-43,13134,-29142,-19263,1668,891
891,22246,22256,41,-28,924,47,38,46,-49,13338,-29046,-19155,1667,892
892,22269,22279,45,-27,920,-207,42,46,-50,13320,-29094,-19449,1672,893
893,22298,22308,27,-76,949,-239,50,49,-48,13128,-28974,-19299,1661,894
895,22427,22437,10,-34,1041,79,35,40,-41,12912,-28980,-19143,1675,896
897,22556,22566,41,-39,952,175,50,43,-45,13068,-28939,-19239,1890,898
899,22686,22696,64,-2,885,-47,42,42,-44,12889,-28939,-19347,1972,900
901,22817,22827,-23,-19,952,-127,43,48,-43,13008,-28855,-19461,2012,902
903,22946,22956,0,0,856,255,28,36,-54,13158,-29100,-19305,2000,904
905,23076,23085,-19,-16,1004,511,48,37,-45,13278,-29028,-19574,2003,906
907,23206,23216,24,-14,925,-111,41,46,-46,13026,-29046,-19030,2017,908
909,23335,23345,99,-22,906,0,44,42,-48,13056,-29100,-19317,2019,910
911,23465,23474,-30,-34,1011,15,37,37,-48,12811,-29010,-19006,2020,912
913,23594,23604,87,2,898,-47,36,42,-45,12673,-29088,-19592,2020,914
915,23725,23735,20,-39,1086,15,34,43,-42,12805,-29046,-19179,2010,916
917,23855,23865,102,23,939,175,41,45,-48,12781,-29196,-19083,2015,918
919,23984,23994,102,13,876,63,49,53,-53,12721,-29328,-19365,2035,920
921,24125,24135,63,-18,849,111,45,41,-46,12805,-29274,-19305,2017,922
923,24254,24264,17,-28,954,-63,36,45,-50,12619,-29316,-19347,2036,924
925,24383,24393,75,-4,893,175,37,44,-45,12416,-29370,-19149,2029,926
927,24513,24523,43,-106,1103,191,52,62,-40,12631,-29160,-19263,2023,928
929,24644,24654,58,-9,915,63,33,32,-45,12404,-29148,-19269,2037,930
931,24773,24783,100,-12,1045,0,41,36,-48,12122,-28962,-19520,2030,932
933,24903,24913,-41,-54,967,287,48,42,-46,12230,-29094,-19077,2033,934
935,25034,25044,137,-27,867,-303,48,43,-45,12469,-29064,-18904,2042,936
937,25161,25171,73,-46,1048,15,38,52,-44,12176,-29352,-19125,2024,938
939,25291,25300,-39,-29,1006,0,35,43,-49,12434,-28915,-19299,2018,940
941,25420,25430,87,-4,839,0,42,45,-43,12296,-29651,-19580,2043,942
943,25551,25561,43,-23,934,-143,36,46,-44,12649,-29298,-19323,2039,944
945,25681,25690,39,-28,924,175,46,46,-48,12511,-29226,-19383,2030,946
947,25810,25820,38,-22,922,511,41,45,-49,12368,-29142,-19395,2021,948
949,25941,25951,37,-26,922,-431,37,46,-46,12440,-29268,-19185,2033,950
951,26078,26088,41,-18,922,303,38,44,-43,12655,-29220,-19592,2031,952
953,26208,26217,39,-23,927,447,40,38,-42,12517,-29172,-19359,2040,954
955,26337,26347,39,-21,929,-143,37,40,-50,12691,-29250,-18898,2044,956
957,26468,26478,42,-21,925,-31,46,48,-43,12380,-29190,-19185,2038,958
959,26598,26608,34,-27,923,-239,41,35,-44,12440,-29399,-19006,2026,960
961,26727,26737,34,-25,922,111,45,38,-44,12541,-29423,-18946,2031,962
963,26858,26868,46,-21,920,207,44,43,-48,12487,-29531,-19137,2032,964
965,26988,26997,39,-31,928,127,40,42,-46,12517,-29316,-19281,2047,966
967,27115,27125,40,-20,924,95,42,43,-45,12583,-29340,-19155,2039,968
969,27252,27262,47,-19,930,95,40,43,-48,12589,-29250,-19323,2031,970
971,27383,27393,43,-30,922,-159,45,43,-48,12410,-29310,-19036,2043,972
973,27513,27523,47,-23,928,223,40,44,-48,12422,-29561,-19281,2030,974
975,27652,27662,39,-25,924,143,40,45,-48,12296,-29262,-19179,2035,976
977,27781,27791,36,-23,918,127,38,46,-50,12416,-29549,-19275,2040,978
979,27914,27924,43,-36,913,111,38,38,-46,12440,-29226,-19323,2024,980
981,28051,28061,111,-46,961,-303,38,51,-41,12236,-29184,-18952,2035,982
983,28181,28190,-8,-57,896,15,30,46,-48,12607,-29316,-19012,2025,984
985,28312,28322,45,50,802,-143,52,48,-45,12559,-29435,-19221,2029,986
987,28441,28451,0,-9,966,-207,46,42,-45,12434,-29046,-19059,2050,988
989,28571,28580,15,-5,985,0,41,48,-56,12685,-29064,-19275,2038,990
991,28700,28710,69,-10,917,735,34,34,-58,12499,-29298,-18874,2044,992
993,28833,28843,15,-18,900,239,46,41,-61,12440,-29274,-18958,2032,994
995,28962,28972,97,-47,813,-95,59,60,-59,12440,-29004,-19455,2035,996
997,29089,29099,67,-2,953,207,37,41,-44,12649,-29064,-19095,2035,998
999,29220,29230,71,16,872,31,45,36,-48,12493,-29046,-19215,2050,1000
1001,29350,29360,94,3,844,-63,49,52,-43,12392,-29220,-19101,2057,1002
1003,29479,29489,-13,-86,671,-415,38,36,-37,12577,-29220,-18940,2041,1004
1005,29608,29618,104,-4,872,-95,38,46,-49,12739,-29058,-19006,2053,1006
1007,29741,29751,11,-32,1048,127,43,44,-46,12326,-29190,-19143,2046,1008
1009,29871,29880,44,-15,926,-191,43,42,-42,12410,-28915,-19054,2052,1010
1011,30008,30017,72,-48,981,-271,53,59,-42,12601,-29238,-19149,2051,1012
1013,30139,30149,50,-29,992,-127,36,41,-49,12535,-29052,-19245,2065,1014
1015,30268,30278,73,137,925,-223,52,53,-46,12541,-29046,-19568,2047,1016
1017,30397,30407,39,-37,946,63,46,53,-45,12709,-29316,-19209,2032,1018
1019,30534,30544,65,-28,918,15,41,50,-48,12805,-29064,-19143,2037,1020
1021,30667,30677,23,-6,952,95,40,36,-50,12673,-29088,-19341,2044,1022
1023,30797,30806,21,-15,972,159,48,61,-34,12775,-28891,-19167,2034,1024
1025,30926,30936,52,0,836,143,32,38,-48,13056,-29250,-19425,2037,1026
1027,31057,31067,67,0,996,-159,41,30,-46,12709,-28950,-19161,2053,1028
1029,31186,31196,37,-24,922,239,42,40,-48,13002,-29160,-19125,2043,1030
1031,31315,31325,51,-21,937,-223,29,32,-52,12978,-28927,-19137,2036,1032
1033,31445,31455,47,-27,920,-31,41,30,-50,12984,-29064,-19425,2042,1034
1035,31578,31588,41,-23,922,255,41,42,-49,13002,-28813,-19143,2035,1036
1037,31707,31717,46,-26,930,287,50,46,-46,13110,-28992,-19287,2057,1038
1039,31836,31846,37,-23,928,-79,45,53,-49,13026,-28939,-19281,2054,1040
1041,31977,31987,32,-25,925,-287,45,50,-48,12853,-28992,-19640,2046,1042
1043,32106,32116,52,-19,922,287,41,45,-43,13104,-28933,-19305,2059,1044
1045,32236,32246,43,-21,926,335,41,45,-53,13068,-29064,-19790,2056,1046
1047,32365,32375,54,-19,935,-63,42,41,-43,12978,-28813,-19251,2038,1048
1049,32498,32508,39,-15,924,319,42,37,-48,12996,-29130,-19347,2038,1050
1051,32627,32637,43,-28,929,335,41,42,-49,12936,-29106,-19059,2048,1052
1053,32757,32766,43,-23,928,335,41,41,-44,12871,-29226,-18976,2058,1054
1055,32888,32898,45,-23,933,-175,41,45,-40,13020,-28897,-19245,2056,1056
1057,33015,33025,35,-31,925,207,37,41,-45,12769,-29124,-19239,2044,1058
1059,33144,33154,36,-24,930,111,41,41,-44,12924,-29226,-19395,2050,1060
1061,33274,33284,39,-31,928,-463,38,45,-46,13056,-29196,-19155,2061,1062
1063,33407,33417,44,-26,939,239,44,46,-42,13032,-28998,-19095,2062,1064
1065,33536,33546,39,-28,929,319,40,43,-44,13014,-29010,-19125,2057,1066
1067,33665,33675,33,-13,926,-175,11,-11,-42,12877,-28801,-18904,2044,1068
1069,33797,33807,52,-22,928,-335,46,48,-45,12972,-28956,-19377,2048,1070
1071,33934,33944,49,-20,917,-223,42,45,-44,12948,-29016,-19317,2043,1072
1073,34063,34073,38,-27,922,79,44,45,-49,13134,-28867,-18844,2047,1074
1075,34193,34203,35,-20,923,175,42,41,-48,12930,-29070,-19179,2055,1076
1077,34334,34343,37,-12,925,47,44,41,-43,13020,-29022,-19185,2045,1078
1079,34463,34473,47,-25,933,15,37,43,-50,13008,-28903,-19131,2051,1080
1081,34592,34602,41,-15,922,-63,42,41,-49,13026,-29052,-18922,2066,1082
1083,34724,34733,34,-19,925,-239,36,46,-44,13086,-29190,-19377,2061,1084
1085,34853,34862,45,-33,926,-95,43,48,-49,12918,-29136,-19191,2053,1086
1087,34994,35004,41,-36,911,287,41,43,-44,12835,-29052,-19209,2050,1088
1089,35123,35133,42,-25,937,0,41,45,-50,12877,-29046,-19299,2068,1090
1091,35257,35266,41,-23,923,191,45,42,-50,13038,-28998,-19628,2064,1092
1093,35386,35396,41,-21,921,255,44,45,-43,13074,-29334,-19389,2049,1094
1095,35515,35525,43,-31,919,175,41,43,-51,13044,-29112,-19287,2045,1096
1097,35647,35656,41,-20,934,-207,44,44,-50,13056,-29100,-19179,2045,1098
1099,35776,35786,36,-21,935,-143,41,44,-48,13080,-29136,-19592,2060,1100
1101,35913,35923,36,-19,937,351,42,48,-44,12996,-28962,-19179,2052,1102
1103,36042,36052,43,-17,920,-223,46,43,-45,12984,-28974,-19508,2060,1104
1105,36175,36185,41,-19,930,-47,46,42,-48,12930,-29004,-19491,2065,1106
1107,36305,36315,42,-34,930,143,40,52,-49,13038,-29202,-19646,2058,1108
