count,tInitial,tFinal,accel_x,accel_y,accel_z,accel_high,gyro_x,gyro_y,gyro_z,mag_x,mag_y,mag_z,temp,packet_num
4958,1230,1240,29,-9,904,143,196,-818,105,-23732,-26813,-18389,890,1
4958,1305,1315,30,-18,910,191,195,-810,108,-23613,-26825,-18365,890,2
4958,1328,1338,36,-26,906,47,196,-818,109,-23529,-26694,-18239,889,3
4958,1364,1373,26,-26,909,207,197,-825,110,-23589,-26849,-18185,891,4
4958,1386,1396,31,-14,906,287,194,-816,112,-23613,-26723,-18263,889,5
4958,1409,1419,30,-23,900,271,202,-814,108,-23762,-26801,-18156,891,6
4958,1432,1442,28,-22,908,287,196,-818,106,-23679,-26700,-18491,890,7
4958,1455,1465,27,-18,909,-399,195,-820,110,-23744,-26861,-18353,888,8
4958,1477,1487,27,-21,906,255,196,-818,104,-23553,-26729,-18479,890,9
4958,1500,1510,23,-19,906,191,194,-820,110,-23714,-26771,-18652,888,10
4958,1523,1533,34,-21,906,367,199,-818,109,-23732,-26717,-18455,891,11
4958,1546,1556,39,-19,906,191,197,-816,112,-23505,-26813,-18341,890,12
4958,1568,1578,23,-21,906,207,193,-818,110,-23571,-26819,-18431,889,13
4958,1591,1601,35,-24,912,175,202,-816,102,-23667,-26921,-18311,891,14
4958,1640,1650,36,-17,904,143,200,-822,108,-23613,-27017,-18275,892,15
4958,1663,1673,33,-20,909,287,200,-821,113,-23810,-26706,-18395,888,16
4958,1686,1696,19,-20,914,-207,201,-820,110,-23774,-26759,-18527,890,17
4958,1709,1718,31,-22,915,-191,197,-812,107,-23601,-26963,-18353,890,18
4958,1732,1741,29,-13,909,31,195,-815,108,-23756,-26951,-18652,890,19
4958,1754,1764,25,-17,912,-63,197,-814,112,-23750,-26777,-18611,888,20
4958,1777,1787,25,-12,919,-223,193,-817,107,-23523,-26897,-18245,889,21
4958,1800,1810,23,-20,915,-271,196,-821,107,-23589,-26933,-18359,889,22
4958,1823,1833,32,-13,913,207,199,-817,106,-23744,-26777,-18263,889,23
4958,1846,1856,34,-20,920,-191,197,-822,107,-23762,-26747,-18443,886,24
4958,1869,1879,29,-27,924,575,196,-820,112,-23601,-26592,-18371,890,25
4958,1892,1902,31,-17,909,-479,201,-816,106,-23780,-26807,-18455,889,26
4958,1915,1925,23,-19,913,207,196,-817,108,-23984,-26759,-18365,887,27
4958,1938,1948,34,-13,910,127,199,-816,108,-23720,-26664,-18227,890,28
4958,1988,1998,26,-15,917,415,199,-817,110,-23888,-26819,-18239,892,29
4958,2011,2020,27,-17,916,159,200,-813,110,-23816,-26843,-18329,892,30
4958,2034,2043,23,-21,915,207,197,-821,112,-23930,-26777,-18257,890,31
4958,2056,2066,32,-24,918,287,200,-823,105,-23816,-26747,-18209,891,32
4958,2079,2089,36,-22,920,-255,195,-813,109,-23888,-26807,-18353,890,33
4958,2102,2112,34,-20,920,0,194,-822,107,-23936,-26598,-18419,892,34
4958,2125,2135,31,-19,919,0,189,-821,110,-23726,-26759,-18431,889,35
4958,2148,2158,31,-11,918,367,199,-818,105,-23858,-26819,-18515,890,36
4958,2171,2181,29,-19,921,15,194,-818,107,-23762,-26729,-18395,889,37
4958,2194,2204,30,-26,920,271,195,-813,109,-23930,-26628,-18287,893,38
4958,2217,2227,32,-15,920,-47,195,-817,105,-23810,-26867,-18281,889,39
4958,2240,2250,31,-21,907,175,192,-820,108,-23780,-26825,-18353,888,40
4958,2263,2273,23,-21,918,-111,199,-818,106,-23720,-26807,-18179,888,41
4958,2286,2296,33,-30,912,159,199,-822,108,-23858,-26813,-18329,891,42
4958,2340,2350,34,-17,913,-287,200,-818,108,-23679,-26765,-18108,891,43
4958,2363,2373,30,-23,929,159,194,-820,107,-23786,-26861,-18156,890,44
4958,2386,2396,19,-18,920,0,196,-820,112,-23786,-26729,-18269,891,45
4958,2409,2419,32,-23,921,-351,202,-824,110,-23607,-26658,-18377,891,46
4958,2443,2453,28,-23,922,255,194,-814,114,-23786,-26658,-18185,889,47
4958,2466,2476,30,-18,910,-47,199,-818,106,-23756,-26700,-18545,889,48
4958,2489,2499,26,-19,926,-63,199,-821,110,-23822,-26502,-18167,891,49
4958,2512,2522,34,-25,915,31,194,-820,108,-23900,-26682,-18497,888,50
4958,2535,2545,26,-26,930,63,199,-818,108,-23984,-26723,-18569,889,51
4958,2558,2568,30,-19,909,-159,195,-817,102,-23768,-26634,-18616,889,52
4958,2581,2591,31,-20,924,351,197,-820,109,-23780,-26610,-18467,890,53
4958,2604,2614,28,-21,924,111,194,-822,107,-23858,-26783,-18485,892,54
4958,2627,2637,34,-15,922,207,200,-814,110,-23714,-26682,-18539,891,55
4958,2650,2660,33,-18,930,127,199,-818,109,-23828,-26652,-18437,890,56
4958,2698,2708,26,-30,922,79,196,-818,104,-23690,-26586,-18383,890,57
4958,2721,2731,28,-8,917,319,197,-821,108,-23882,-26640,-18545,889,58
4958,2744,2754,28,-13,926,479,194,-818,108,-23882,-26664,-18527,891,59
4958,2767,2777,28,-19,926,-143,200,-818,104,-23882,-26634,-18281,888,60
4958,2790,2800,25,-23,921,383,201,-816,109,-23702,-26843,-18545,892,61
4958,2813,2823,36,-15,922,255,197,-814,112,-23679,-26903,-18742,891,62
4958,2836,2845,32,-26,928,223,203,-817,110,-23870,-26700,-18395,889,63
4958,2859,2868,31,-26,921,127,194,-823,108,-23876,-26622,-18455,891,64
4958,2881,2891,28,-13,927,-47,194,-817,106,-23625,-26616,-18317,886,65
4958,2904,2914,21,-13,920,0,200,-817,107,-23792,-26670,-18347,889,66
4958,2927,2937,21,-15,915,671,196,-816,109,-23804,-26556,-18401,892,67
4958,2950,2960,34,-25,928,-95,195,-818,110,-23762,-26634,-18317,888,68
4958,2973,2983,30,-24,916,223,202,-817,107,-23834,-26622,-18545,889,69
4958,2996,3006,23,-18,930,223,195,-816,112,-23708,-26646,-18491,889,70
4958,3045,3055,18,-17,919,287,199,-816,107,-23936,-26801,-18605,892,71
4958,3068,3078,32,-17,926,207,197,-814,110,-23930,-26688,-18664,891,72
4958,3091,3101,407,-152,2037,-95,-2063,5175,6745,-23846,-26652,-18455,889,73
4958,3114,3124,29,-21,927,223,218,-613,-167,-23822,-26592,-18425,887,74
4958,3137,3147,34,-21,922,-63,167,-385,-150,-23900,-26789,-18569,888,75
4958,3160,3170,27,-21,924,15,121,-178,-128,-23625,-26813,-18497,890,76
4958,3183,3192,35,-19,919,175,84,-51,-112,-23924,-26765,-18245,889,77
4958,3205,3215,24,-17,925,463,51,75,-89,-23858,-26610,-18329,890,78
4958,3228,3238,26,-16,929,79,56,169,-82,-23738,-27053,-18167,889,79
4958,3251,3261,26,-29,916,-399,10,227,-89,-23786,-26688,-18628,889,80
4958,3274,3284,25,-13,928,79,19,271,-85,-23792,-26945,-18269,892,81
4958,3297,3307,39,-23,913,-143,-17,298,-77,-23768,-26765,-18479,892,82
4958,3320,3330,38,-70,937,207,13,316,-78,-23978,-26771,-18473,890,83
4958,3343,3352,-26,-13,939,255,-20,317,-73,-23535,-26688,-18347,891,84
4958,3391,3401,102,-23,923,271,-14,320,-70,-23768,-26741,-18251,891,85
4958,3414,3424,5,-23,917,-255,-8,308,-66,-23649,-26628,-18299,890,86
4958,3437,3447,13,-57,917,319,-25,303,-67,-23798,-26717,-18203,891,87
4958,3460,3470,-28,-17,924,-47,-13,292,-60,-23732,-26729,-18664,890,88
4958,3483,3493,-33,-19,935,207,22,285,-62,-23726,-26526,-18299,892,89
4958,3506,3515,32,5,941,-319,-25,272,-53,-23852,-26382,-18449,890,90
4958,3528,3538,42,5,930,-239,-3,256,-41,-23888,-26682,-18335,891,91
4958,3551,3561,96,-26,912,319,-3,248,-44,-23840,-26891,-18395,890,92
4958,3574,3584,25,-30,922,367,5,232,-40,-23720,-26634,-18323,891,93
4958,3597,3607,20,-56,931,287,9,220,-38,-23870,-26490,-18305,889,94
4958,3620,3630,-29,-171,939,15,-1,210,-19,-23846,-26592,-18479,891,95
4958,3643,3653,-14,6,893,-31,284,193,-19,-23810,-26496,-18383,890,96
4958,3666,3675,65,-9,940,-223,9,180,-10,-23750,-26622,-18173,889,97
4958,3714,3724,-18,-1,920,-79,26,149,-10,-23864,-26514,-18251,888,98
4958,3737,3747,47,-3,915,15,6,147,-2,-23690,-26514,-18179,891,99
4958,3760,3770,56,-2,933,31,26,133,-5,-23768,-26741,-18191,890,100
4958,3783,3793,66,-60,937,191,27,114,-10,-23780,-26574,-18102,892,101
4958,3806,3815,52,-55,928,95,32,114,-16,-23954,-26580,-17994,891,102
4958,3828,3838,-10,6,920,383,33,93,-13,-23816,-26490,-18138,892,103
4958,3851,3861,26,14,901,255,35,88,-13,-23786,-26514,-18371,891,104
4958,3874,3884,49,-10,917,-463,35,74,-8,-23960,-26700,-18197,889,105
4958,3897,3907,55,-67,923,319,48,59,-14,-23852,-26526,-18197,893,106
4958,3920,3930,40,-63,948,-303,43,43,-21,-23894,-26430,-18108,890,107
4958,3943,3953,0,13,908,287,48,44,-24,-23786,-26502,-18108,892,108
4958,3966,3975,3,6,936,431,44,41,-24,-23810,-26759,-17994,891,109
4958,3988,3998,74,-40,936,191,46,43,-18,-23583,-26628,-18030,891,110
4958,4011,4021,13,-63,922,-207,38,42,-28,-23942,-26604,-18209,891,111
4958,4061,4071,47,159,926,175,41,50,-18,-23888,-26568,-17970,890,112
4958,4084,4094,54,-36,937,-127,48,43,-26,-23966,-26658,-17946,891,113
4958,4107,4117,29,-37,919,-319,49,41,-27,-23810,-26532,-17946,890,114
4958,4130,4139,-2,0,911,319,52,43,-27,-23924,-26616,-17994,890,115
4958,4152,4162,23,-7,915,431,49,42,-24,-23774,-26682,-18185,888,116
4958,4175,4185,65,-59,921,127,44,41,-27,-23864,-26741,-18257,890,117
4958,4198,4208,0,-50,937,15,53,46,-20,-23679,-26652,-18120,890,118
4958,4221,4230,2,7,924,207,43,50,-25,-23930,-26706,-17982,889,119
4958,4251,4261,17,0,916,351,42,42,-27,-24068,-26478,-17922,890,120
4958,4274,4283,34,4,931,527,44,40,-30,-23882,-26556,-18036,889,121
4958,4296,4306,57,-47,939,687,48,38,-25,-23972,-26514,-18162,892,122
4958,4319,4329,17,-15,924,255,48,42,-27,-23876,-26502,-18281,888,123
4958,4342,4352,28,11,918,127,46,48,-24,-23882,-26496,-18060,890,124
4958,4365,4374,34,-22,928,-47,38,45,-24,-23960,-26442,-18233,892,125
4958,4391,4401,19,-13,935,367,48,46,-33,-23936,-26406,-18162,892,126
4958,4414,4423,15,-3,922,271,46,45,-20,-23888,-26526,-18377,891,127
4958,4436,4446,55,-53,929,159,46,43,-25,-23846,-26574,-18096,890,128
4958,4459,4469,35,-41,929,431,50,40,-30,-24008,-26490,-18096,889,129
4958,4482,4492,6,-1,920,143,43,44,-19,-23966,-26741,-18221,889,130
4958,4505,4514,56,-52,920,95,51,43,-28,-23702,-26466,-18179,892,131
4958,4527,4537,13,-44,932,255,51,37,-25,-23768,-26490,-18072,889,132
4958,4550,4560,8,3,923,159,48,42,-25,-23888,-26586,-18102,892,133
4958,4573,4583,43,-49,926,-15,37,42,-22,-23954,-26382,-18156,890,134
4958,4596,4605,48,-45,946,207,46,41,-26,-23840,-26688,-18557,890,135
4958,4618,4628,4,5,919,303,50,43,-26,-23679,-26652,-18221,888,136
4958,4641,4651,40,-37,935,111,45,45,-24,-23732,-26484,-18485,892,137
4958,4664,4674,50,-57,927,415,49,38,-22,-23690,-26418,-18389,891,138
4958,4687,4696,11,13,932,-79,45,45,-28,-23750,-26454,-18455,893,139
4958,4713,4723,-131,-9,918,31,43,37,-16,-23882,-26364,-18167,888,140
4958,4736,4745,64,0,946,335,44,41,-29,-23924,-26292,-17976,890,141
4958,4758,4768,75,-24,952,415,46,43,-27,-24014,-26706,-18299,890,142
4958,4781,4791,39,-56,926,479,45,41,-27,-23708,-26628,-18371,891,143
4958,4804,4814,4,-4,916,-111,53,42,-26,-23726,-26706,-18072,888,144
4958,4826,4836,35,-14,924,271,49,44,-19,-23708,-26520,-18257,891,145
4958,4849,4859,31,-47,928,383,46,38,-24,-23810,-26436,-18299,890,146
4958,4872,4882,32,-15,925,223,49,48,-30,-23864,-26550,-18359,891,147
4958,4895,4904,28,-9,924,255,43,43,-21,-23876,-26286,-18467,892,148
4958,4917,4927,36,-45,931,127,49,41,-19,-23792,-26460,-18365,890,149
4958,4940,4950,30,-19,941,319,52,44,-27,-23786,-26436,-18395,887,150
4958,4963,4973,19,-4,913,-303,50,42,-20,-23876,-26574,-18191,890,151
4958,4986,4995,52,-58,947,207,40,40,-25,-23870,-26263,-18179,890,152
4958,5008,5018,28,-31,924,79,48,45,-27,-23936,-26502,-18179,889,153
4958,5035,5044,34,-31,924,159,44,41,-22,-23780,-26376,-18150,891,154
4958,5057,5067,40,-32,924,-415,43,42,-24,-23810,-26436,-18090,891,155
4958,5080,5090,32,-15,919,63,44,40,-24,-23930,-26490,-18006,891,156
4958,5103,5113,34,-21,932,255,41,41,-29,-23924,-26388,-18293,891,157
4958,5125,5135,28,-27,930,0,53,41,-22,-24008,-26352,-17940,885,158
4958,5148,5158,27,-15,926,127,52,42,-25,-23912,-26532,-18036,890,159
4958,5171,5181,30,-15,928,527,42,40,-21,-24062,-26670,-18245,891,160
4958,5193,5203,43,-15,922,-143,46,41,-25,-24169,-26508,-18221,891,161
4958,5216,5226,34,-18,933,335,49,43,-24,-23972,-26652,-18060,890,162
4958,5239,5249,29,-22,922,447,38,43,-25,-23870,-26616,-18108,889,163
4958,5262,5271,26,-21,923,143,52,44,-28,-23930,-26496,-18173,892,164
4958,5284,5294,26,-15,938,47,45,37,-26,-23822,-26304,-18024,892,165
4958,5307,5317,33,-21,931,271,48,44,-24,-24014,-26652,-18257,890,166
4958,5330,5340,23,-13,929,95,46,40,-25,-23864,-26562,-17910,891,167
4958,5356,5366,29,-16,933,0,48,45,-24,-24020,-26556,-18042,890,168
4958,5379,5389,26,-25,926,255,43,42,-21,-24050,-26717,-17862,890,169
4958,5401,5411,32,-26,928,-319,50,43,-24,-23876,-26706,-17844,889,170
4958,5424,5434,35,-26,942,287,50,43,-25,-23786,-26616,-17844,891,171
4958,5447,5457,32,-17,926,255,45,41,-27,-23942,-26472,-18173,889,172
4958,5470,5479,26,-15,926,159,45,44,-25,-24247,-26586,-18359,892,173
4958,5492,5502,19,-25,922,47,51,44,-22,-24008,-26388,-18341,891,174
4958,5515,5525,28,-17,928,415,45,44,-25,-24014,-26364,-18515,891,175
4958,5538,5548,21,-18,908,223,48,46,-21,-24020,-26508,-18048,891,176
4958,5561,5570,41,-11,939,-47,54,44,-21,-23990,-26544,-18407,892,177
4958,5583,5593,20,-21,924,319,49,46,-24,-23990,-26406,-18018,891,178
4958,5606,5616,32,-21,920,0,48,43,-26,-23762,-26328,-18245,891,179
4958,5629,5639,26,-16,927,-271,46,45,-26,-24008,-26514,-18191,891,180
4958,5655,5665,37,-25,932,143,50,44,-24,-24074,-26520,-18509,890,181
4958,5678,5687,34,-21,932,-159,52,45,-26,-23942,-26646,-18185,890,182
4958,5700,5710,-108,-14,930,-143,49,43,-27,-23870,-26406,-18096,891,183
4958,5723,5733,-17,-2,942,223,52,46,-18,-23870,-26442,-18191,891,184
4958,5746,5756,96,-34,952,79,49,41,-24,-24020,-26406,-18329,889,185
4958,5768,5778,34,-22,922,-159,45,41,-27,-23882,-26592,-18209,891,186
4958,5791,5801,40,-25,937,-159,51,42,-25,-23894,-26430,-18251,891,187
4958,5814,5824,23,-27,928,47,42,45,-22,-23948,-26508,-18215,890,188
4958,5836,5846,41,-19,915,47,49,44,-26,-23685,-26610,-18150,889,189
4958,5859,5869,35,-20,921,-207,41,35,-21,-24110,-26592,-18293,892,190
4958,5882,5892,18,-25,933,-127,44,43,-25,-24002,-26562,-18395,891,191
4958,5905,5914,30,-29,917,47,46,45,-28,-24086,-26478,-18413,888,192
4958,5927,5937,21,-21,922,-95,51,43,-24,-24020,-26233,-18311,892,193
4958,5950,5960,34,-13,926,-127,46,38,-22,-24044,-26376,-18317,889,194
4958,5976,5986,34,-23,941,-47,44,40,-26,-24002,-26430,-18269,889,195
4958,5999,6009,30,-34,926,431,48,42,-25,-23948,-26298,-18197,890,196
4958,6022,6031,36,-21,939,0,46,43,-20,-24050,-26676,-18700,891,197
4958,6044,6054,28,-16,927,-319,48,44,-22,-23846,-26538,-18407,891,198
4958,6067,6077,32,-61,939,239,44,46,-25,-23762,-26712,-18203,888,199
4958,6090,6100,-13,-12,916,-111,46,42,-24,-23942,-26550,-18263,889,200
4958,6112,6122,42,-165,906,47,48,49,-21,-24020,-26550,-18371,892,201
4958,6135,6145,32,2,926,-367,48,42,-26,-24050,-26532,-18156,892,202
4958,6158,6167,56,-23,937,15,46,48,-19,-23816,-26478,-18317,892,203
4958,6180,6190,39,-64,944,559,40,38,-26,-23942,-26586,-18359,893,204
4958,6203,6213,-4,-56,945,-47,40,43,-29,-23978,-26538,-18341,891,205
4958,6226,6236,0,-4,902,95,46,46,-26,-24074,-26526,-18287,887,206
4958,6248,6258,37,-1,940,-175,44,41,-18,-24008,-26263,-18156,888,207
4958,6271,6281,47,-45,923,-383,38,42,-28,-23804,-26430,-18503,889,208
4958,6297,6307,10,2,920,143,49,43,-19,-23990,-26592,-18353,889,209
4958,6320,6330,13,-10,946,-63,52,49,-19,-23852,-26448,-18227,892,210
4958,6343,6352,41,-1,913,0,44,49,-22,-23822,-26568,-18479,892,211
4958,6365,6375,54,-55,915,319,51,48,-22,-23840,-26616,-18413,888,212
4958,6388,6398,45,-35,938,-239,45,38,-21,-23912,-26628,-18371,890,213
4958,6411,6421,35,-13,920,-111,46,44,-21,-23906,-26538,-18359,891,214
4958,6433,6443,60,-10,935,-207,43,42,-24,-23846,-26717,-18114,888,215
4958,6456,6466,17,-25,917,-191,82,45,-21,-23984,-26544,-18479,891,216
4958,6479,6489,6,-23,924,47,73,37,-29,-23774,-26358,-18413,891,217
4958,6501,6511,36,-8,929,0,73,45,-28,-23864,-26490,-18347,893,218
4958,6524,6534,14,-26,922,-63,22,40,-21,-23918,-26508,-18030,889,219
4958,6547,6557,26,-25,939,239,26,41,-21,-23816,-26520,-18257,891,220
4958,6569,6579,32,-21,920,0,42,38,-30,-23774,-26610,-18305,892,221
4958,6592,6602,28,-25,932,-223,48,50,-26,-23858,-26508,-18461,890,222
4958,6618,6628,43,-23,924,-271,45,41,-26,-23714,-26520,-18353,889,223
4958,6641,6651,33,-26,929,383,43,42,-27,-23738,-26682,-18048,890,224
4958,6664,6673,27,-19,931,-207,51,37,-24,-23750,-26508,-18120,891,225
4958,6686,6696,27,-21,930,207,44,42,-27,-23846,-26610,-18221,891,226
4958,6709,6719,35,-21,927,351,48,37,-20,-23702,-26508,-18209,890,227
4958,6732,6742,22,-25,937,271,48,49,-24,-23882,-26592,-18299,892,228
4958,6755,6764,42,-22,924,383,43,40,-26,-23882,-26610,-18275,886,229
4958,6777,6787,30,-21,932,-191,42,44,-25,-23661,-26514,-18581,889,230
4958,6800,6810,24,-19,933,-191,45,40,-24,-23553,-26508,-18323,892,231
4958,6823,6832,38,-30,930,31,50,45,-20,-23846,-26646,-18509,888,232
4958,6845,6855,34,-27,929,383,46,43,-27,-23822,-26747,-18539,888,233
4958,6868,6878,25,-21,921,95,51,45,-26,-23822,-26658,-18467,888,234
4958,6891,6901,30,-22,924,0,48,45,-27,-23918,-26658,-18389,892,235
4958,6913,6923,35,-16,924,63,48,41,-24,-23942,-26562,-18215,891,236
4958,6952,6962,22,-22,933,-287,49,45,-26,-23780,-26418,-18359,891,237
4958,6975,6985,38,-16,929,47,42,44,-29,-23637,-26418,-18796,891,238
4958,6998,7008,33,-19,925,0,46,37,-21,-23876,-26478,-18413,889,239
4958,7021,7030,28,-16,933,15,46,42,-20,-24026,-26717,-18515,890,240
4958,7051,7061,34,-21,930,31,48,40,-25,-23972,-26418,-18682,891,241
4958,7074,7083,26,-19,927,431,46,40,-24,-23732,-26568,-18221,891,242
4958,7096,7106,28,-21,932,159,45,36,-29,-24133,-26484,-18251,890,243
4958,7119,7129,31,-21,936,303,44,38,-28,-24080,-26502,-18521,891,244
4958,7142,7151,26,-15,933,415,42,41,-27,-24026,-26448,-18664,891,245
4958,7164,7174,26,-21,925,-47,49,37,-22,-24098,-26472,-18700,891,246
4958,7187,7197,26,-18,933,0,45,41,-21,-24080,-26604,-18317,892,247
4958,7210,7219,29,-23,924,111,44,48,-20,-24002,-26592,-18437,894,248
4958,7232,7242,26,-19,927,-127,44,41,-28,-24151,-26616,-18287,890,249
4958,7255,7265,31,-27,937,319,41,42,-25,-24014,-26694,-18485,889,250
4958,7281,7291,21,-23,929,-111,38,42,-27,-23942,-26544,-18575,892,251
4958,7304,7314,28,-26,935,-111,49,43,-19,-24056,-26526,-18203,889,252
4958,7327,7336,27,-22,931,-239,45,42,-22,-23930,-26436,-18281,889,253
4958,7349,7359,22,-15,935,175,43,46,-21,-23768,-26694,-18096,890,254
4958,7372,7382,27,-32,933,575,43,45,-28,-23942,-26586,-18323,890,255
4958,7395,7404,31,-25,926,143,49,45,-27,-23930,-26717,-18605,889,256
4958,7417,7427,36,-26,919,191,43,40,-21,-23858,-26813,-18299,886,257
4958,7440,7450,38,-30,936,31,50,41,-24,-23930,-26592,-18269,888,258
4958,7463,7472,30,-23,929,63,43,45,-28,-23750,-26646,-18281,890,259
4958,7485,7495,29,-20,921,223,45,35,-26,-24038,-26502,-18185,891,260
4958,7508,7518,30,-21,928,-63,43,43,-24,-23960,-26628,-18389,891,261
4958,7531,7540,39,-17,928,127,53,41,-26,-23882,-26466,-18323,890,262
4958,7553,7563,26,-14,920,191,42,38,-25,-23978,-26586,-18383,891,263
4958,7579,7589,21,-17,924,-159,53,48,-25,-23960,-26514,-18245,890,264
4958,7602,7612,37,-21,935,95,49,37,-20,-23810,-26484,-18287,892,265
4958,7636,7646,34,-19,917,239,43,43,-26,-23780,-26628,-18563,888,266
4958,7659,7669,28,-17,922,319,44,42,-27,-23906,-26825,-18479,891,267
4958,7682,7691,16,-21,931,351,45,37,-24,-23900,-26538,-18245,891,268
4958,7704,7714,21,-19,929,-111,48,45,-24,-23876,-26520,-18539,887,269
4958,7727,7737,29,-19,935,175,44,42,-24,-24014,-26454,-18611,891,270
4958,7750,7759,31,-19,932,-287,49,45,-27,-23870,-26544,-18419,891,271
4958,7772,7782,25,-19,933,207,51,42,-24,-24157,-26717,-18646,893,272
4958,7795,7805,19,-21,924,-31,46,44,-25,-23822,-26723,-18401,890,273
4958,7818,7827,28,-14,927,-15,43,42,-21,-23936,-26652,-18652,890,274
4958,7840,7850,38,-16,930,191,46,43,-25,-23768,-26520,-18616,890,275
4958,7863,7873,24,-26,929,351,48,45,-25,-24098,-26394,-18575,889,276
4958,7885,7895,19,-30,921,0,46,42,-22,-23972,-26652,-18425,889,277
4958,7912,7922,34,-23,937,367,43,43,-19,-24002,-26526,-18569,890,278
4958,7934,7944,27,-15,927,-143,42,44,-27,-24122,-26508,-18167,888,279
4958,7957,7967,31,-13,914,0,46,35,-26,-24074,-26562,-18012,881,280
4958,7980,7990,33,-18,930,0,50,46,-22,-24074,-26442,-18251,889,281
4958,8002,8012,28,-21,927,111,45,45,-27,-23876,-26694,-17988,888,282
4958,8025,8035,29,-27,937,47,45,40,-24,-23906,-26484,-18287,891,283
4958,8048,8058,33,-18,930,-127,41,43,-25,-23906,-26729,-18305,894,284
4958,8070,8080,34,-19,928,143,46,44,-22,-23930,-26550,-18299,888,285
4958,8093,8103,30,-19,928,63,44,42,-28,-23966,-26717,-18120,890,286
4958,8116,8126,37,-21,917,-207,48,44,-28,-24020,-26783,-18185,892,287
4958,8138,8148,27,-21,922,143,46,42,-25,-24008,-26622,-18323,891,288
4958,8161,8171,31,-21,926,15,42,42,-26,-23960,-26568,-18335,892,289
4958,8184,8194,36,-23,926,159,46,38,-24,-24026,-26634,-18233,891,290
4958,8206,8216,32,-19,921,-175,52,43,-25,-23972,-26616,-18443,890,291
4958,8233,8242,27,-16,928,-143,50,42,-20,-23912,-26646,-18389,890,292
4958,8255,8265,21,-26,922,0,43,41,-22,-24181,-26574,-18455,891,293
4958,8278,8288,26,-21,924,79,43,42,-26,-23667,-26610,-17946,889,294
4958,8300,8310,23,-22,935,255,42,37,-20,-23685,-26771,-18455,889,295
4958,8323,8333,30,-22,928,-63,43,46,-25,-23804,-26628,-18694,889,296
4958,8346,8356,34,-17,928,-255,48,42,-26,-23978,-26496,-18760,893,297
4958,8368,8378,31,-22,936,367,43,42,-25,-23954,-26280,-18700,892,298
4958,8391,8401,22,-21,928,415,49,41,-25,-23828,-26490,-18682,891,299
4958,8414,8423,30,-19,926,175,42,38,-29,-23942,-26394,-18778,887,300
4958,8436,8446,33,-25,927,-111,40,40,-27,-23930,-26616,-18688,889,301
4958,8459,8469,32,-17,933,-143,54,44,-28,-24038,-26448,-18694,892,302
4958,8482,8491,24,-19,935,127,42,45,-20,-24169,-26568,-18389,889,303
4958,8504,8514,29,-21,924,159,49,45,-21,-24080,-26514,-18455,889,304
4958,8527,8537,34,-19,931,223,45,45,-26,-24032,-26460,-18527,891,305
4958,8553,8563,19,-29,922,223,45,46,-24,-24008,-26592,-18640,893,306
4958,8576,8586,28,-21,935,-223,44,38,-21,-24026,-26394,-18215,889,307
4958,8599,8608,34,-18,933,-239,50,40,-25,-24104,-26418,-18545,889,308
4958,8621,8631,32,-22,932,-95,46,43,-21,-23984,-26568,-18443,893,309
4958,8644,8654,28,-26,928,255,48,42,-26,-24110,-26634,-18581,890,310
4958,8666,8676,26,-21,931,63,45,43,-27,-24080,-26658,-18443,888,311
4958,8689,8699,32,-21,935,271,45,43,-27,-24235,-26508,-18581,891,312
4958,8712,8722,15,-16,928,527,48,45,-21,-24122,-26412,-18886,890,313
4958,8734,8744,34,-21,927,-399,46,44,-25,-24080,-26580,-18622,888,314
4958,8757,8767,31,-17,925,607,53,40,-26,-23948,-26640,-18545,888,315
4958,8780,8789,26,-24,924,127,41,42,-24,-24032,-26532,-18634,890,316
4958,8802,8812,28,-22,924,0,42,42,-29,-24259,-26670,-18443,889,317
4958,8825,8835,23,-15,928,191,42,49,-24,-24151,-26604,-18533,891,318
4958,8848,8857,23,-18,925,367,42,40,-25,-23912,-26556,-18545,889,319
4958,8874,8884,26,-22,924,351,44,43,-24,-23900,-26322,-18299,887,320
4958,8896,8906,34,-26,930,143,49,45,-22,-24044,-26508,-18251,893,321
4958,8919,8929,20,-12,928,79,45,41,-29,-23894,-26496,-18533,892,322
4958,8942,8952,28,-15,925,367,43,44,-25,-24038,-26496,-18772,891,323
4958,8964,8974,23,-18,935,239,41,37,-27,-24193,-26430,-18575,890,324
4958,8987,8997,28,-27,939,223,45,46,-25,-24038,-26400,-18353,894,325
4958,9010,9019,20,-11,935,95,45,45,-26,-23996,-26646,-18491,891,326
4958,9032,9042,31,-17,933,175,42,44,-24,-24151,-26628,-18227,891,327
4958,9055,9065,32,-13,932,319,42,42,-21,-24116,-26574,-18581,891,328
4958,9077,9087,24,-18,935,-303,43,42,-21,-24217,-26532,-18593,890,329
4958,9100,9110,32,-23,924,271,48,41,-20,-24086,-26664,-18634,888,330
4958,9123,9133,16,-19,926,255,45,43,-20,-24038,-26694,-18605,890,331
4958,9145,9155,36,-22,924,31,41,44,-27,-23894,-26514,-18563,886,332
4958,9168,9178,36,-14,924,447,46,42,-27,-24062,-26514,-18467,890,333
4958,9194,9204,34,-18,935,-31,43,42,-24,-24056,-26640,-18359,890,334
4958,9217,9227,30,-16,933,-191,51,42,-20,-24092,-26682,-18377,891,335
4958,9239,9249,28,-19,932,335,45,46,-21,-24301,-26496,-18700,892,336
4958,9262,9272,19,-17,929,47,50,35,-24,-24080,-26753,-18640,889,337
4958,9285,9295,25,-23,926,-143,46,45,-24,-23978,-26604,-18239,890,338
4958,9307,9317,32,-19,927,0,48,46,-26,-23912,-26574,-18407,891,339
4958,9330,9340,34,-19,931,-31,48,40,-24,-24157,-26616,-18551,889,340
4958,9353,9363,32,-11,936,415,50,40,-19,-23972,-26676,-18868,890,341
4958,9375,9385,25,-17,936,-47,42,40,-29,-24074,-26496,-18533,889,342
4958,9398,9408,21,-16,926,207,44,43,-21,-24104,-26496,-18521,890,343
4958,9421,9431,41,-21,929,159,43,43,-22,-24211,-26556,-18640,891,344
4958,9443,9453,31,-21,935,63,40,42,-28,-24092,-26520,-18509,890,345
4958,9466,9476,30,-25,923,-63,48,41,-22,-24187,-26400,-18515,889,346
4958,9492,9502,21,-22,931,-143,38,42,-29,-24169,-26478,-18581,891,347
4958,9515,9525,28,-19,918,655,48,43,-24,-24014,-26484,-18563,891,348
4958,9538,9547,34,-16,922,47,41,45,-27,-23906,-26418,-18545,890,349
4958,9560,9570,21,-20,914,0,54,46,-25,-24032,-26538,-18401,891,350
4958,9583,9593,36,-18,928,0,41,45,-26,-24139,-26508,-18664,892,351
4958,9606,9615,34,-19,931,-271,49,42,-27,-24038,-26490,-18491,892,352
4958,9628,9638,23,-24,924,0,43,42,-24,-24038,-26646,-18449,891,353
4958,9651,9661,29,-23,924,-335,46,42,-24,-23870,-26562,-18724,891,354
4958,9674,9683,28,-21,934,367,44,42,-25,-23786,-26789,-18335,890,355
4958,9696,9706,24,-21,937,63,49,43,-24,-24169,-26556,-18527,889,356
4958,9719,9729,25,-21,930,303,48,48,-25,-23930,-26466,-18287,889,357
4958,9742,9751,19,-15,937,63,45,40,-26,-23834,-26532,-18581,890,358
4958,9764,9774,27,-18,929,207,43,41,-27,-24187,-26580,-18611,889,359
4958,9787,9797,30,-15,926,143,49,41,-22,-23906,-26610,-18503,891,360
4958,9813,9823,31,-21,919,175,46,43,-27,-24008,-26268,-18736,892,361
4958,9843,9853,28,-20,930,-111,49,42,-25,-23792,-26514,-18521,890,362
4958,9866,9876,32,-14,935,79,48,41,-21,-23948,-26568,-18257,887,363
4958,9888,9898,34,-23,933,-127,43,40,-22,-23756,-26574,-18179,890,364
4958,9911,9921,24,-25,927,111,44,40,-24,-23792,-26502,-18593,893,365
4958,9934,9944,30,-13,927,255,48,43,-21,-24026,-26448,-18503,890,366
4958,9956,9966,30,-10,927,-63,42,37,-25,-23966,-26622,-18676,892,367
4958,9979,9989,34,-15,935,271,43,44,-25,-23978,-26508,-18341,890,368
4958,10002,10012,28,-20,934,-303,49,40,-25,-23858,-26777,-18479,889,369
4958,10024,10034,28,-23,926,-47,44,42,-24,-23834,-26616,-18389,893,370
4958,10047,10057,32,-24,939,-159,53,41,-25,-23810,-26598,-18365,890,371
4958,10070,10080,24,-13,922,111,41,42,-28,-23750,-26640,-18413,888,372
4958,10092,10102,34,-21,930,63,45,37,-26,-23846,-26520,-18299,893,373
4958,10115,10125,31,-23,936,-79,42,41,-28,-23954,-26508,-18587,890,374
4958,10141,10151,25,-24,934,-207,42,38,-28,-24092,-26436,-18485,891,375
4958,10164,10174,29,-21,936,223,51,41,-27,-23930,-26550,-18539,890,376
4958,10186,10196,29,-20,929,351,50,40,-22,-23816,-26502,-18515,891,377
4958,10209,10219,27,-18,928,319,44,43,-26,-24002,-26640,-18485,891,378
4958,10232,10242,26,-15,922,367,52,42,-27,-23948,-26502,-18473,892,379
4958,10254,10264,32,-14,935,-191,46,43,-22,-23762,-26514,-18341,891,380
4958,10277,10287,37,-28,928,63,41,45,-25,-23966,-26580,-18353,893,381
4958,10300,10309,33,-23,924,-191,42,41,-26,-23888,-26460,-18593,888,382
4958,10322,10332,28,-25,920,-47,49,44,-24,-23828,-26574,-18311,892,383
4958,10345,10355,30,-19,928,127,50,40,-25,-23870,-26460,-18353,889,384
4958,10367,10377,34,-21,934,207,48,38,-24,-23966,-26430,-18239,890,385
4958,10390,10400,28,-19,933,-143,44,44,-22,-23762,-26418,-18425,889,386
4958,10413,10423,33,-16,937,383,43,38,-22,-23834,-26418,-18377,890,387
4958,10435,10445,28,-21,924,575,41,46,-21,-23960,-26460,-18317,891,388
4958,10462,10471,32,-22,936,-511,44,45,-26,-23954,-26592,-18473,890,389
4958,10484,10494,31,-16,937,191,49,44,-27,-23882,-26466,-18473,891,390
4958,10507,10517,31,-21,930,31,44,43,-22,-23798,-26622,-18401,892,391
4958,10529,10539,37,-17,930,0,53,40,-22,-23918,-26328,-18479,890,392
4958,10552,10562,34,-26,925,-223,43,41,-28,-23888,-26562,-18473,892,393
4958,10575,10584,33,-17,926,223,46,36,-25,-23942,-26454,-18221,891,394
4958,10597,10607,31,-20,922,223,48,46,-18,-24008,-26382,-17988,890,395
4958,10620,10630,28,-23,931,0,44,42,-26,-24008,-26466,-18120,893,396
4958,10643,10652,32,-21,928,-175,51,45,-24,-23966,-26729,-18138,890,397
4958,10665,10675,36,-15,933,143,48,42,-22,-24032,-26694,-18132,888,398
4958,10688,10698,31,-27,939,-79,48,42,-25,-24002,-26532,-17862,892,399
4958,10710,10720,22,-26,925,335,48,40,-27,-23864,-26490,-18425,893,400
4958,10733,10743,34,-20,926,383,48,51,-25,-23732,-26556,-18269,890,401
4958,10756,10765,29,-23,939,287,44,50,-24,-23780,-26478,-18096,891,402
4958,10782,10792,23,-25,920,47,50,43,-25,-24133,-26454,-18072,889,403
4958,10804,10814,29,-19,922,95,43,41,-26,-23834,-26388,-18431,889,404
4958,10827,10837,29,-22,930,479,46,41,-25,-24032,-26478,-18581,891,405
4958,10850,10860,21,-23,935,255,45,48,-22,-23942,-26526,-18287,890,406
4958,10872,10882,26,-24,931,-95,49,49,-22,-23822,-26179,-18467,892,407
4958,10895,10905,30,-19,925,63,48,42,-28,-23894,-26370,-18221,890,408
4958,10918,10927,29,-22,923,-191,41,46,-20,-23720,-26472,-18329,891,409
4958,10940,10950,26,-19,928,-127,42,38,-27,-23804,-26448,-18311,889,410
4958,10963,10973,26,-19,925,-367,48,43,-21,-23738,-26412,-18443,890,411
4958,10985,10995,32,-22,939,191,42,43,-26,-23816,-26526,-18335,889,412
4958,11008,11018,34,-21,936,79,46,41,-22,-23840,-26496,-18287,888,413
4958,11031,11040,30,-22,930,287,46,40,-24,-23834,-26400,-18377,889,414
4958,11053,11063,32,-17,936,15,52,38,-22,-23900,-26484,-18503,888,415
4958,11076,11086,30,-19,930,207,43,44,-26,-23774,-26346,-18197,892,416
4958,11102,11112,33,-23,941,-127,54,44,-20,-23816,-26460,-18233,892,417
4958,11125,11134,30,-17,928,223,43,45,-25,-23714,-26514,-18263,888,418
4958,11147,11157,26,-21,932,-95,43,43,-21,-23738,-26442,-18293,891,419
4958,11170,11180,30,-23,925,31,51,42,-20,-23804,-26352,-18371,891,420
4958,11192,11202,21,-17,917,15,53,43,-22,-23870,-26454,-18251,892,421
4958,11215,11225,21,-11,937,0,46,41,-27,-23858,-26610,-18341,890,422
4958,11238,11247,33,-20,922,367,43,38,-20,-23990,-26460,-18551,888,423
4958,11260,11270,29,-25,933,-31,41,46,-22,-23834,-26490,-18293,890,424
4958,11283,11293,26,-22,938,223,54,45,-27,-23810,-26544,-18605,892,425
4958,11305,11315,42,-15,926,175,43,37,-19,-23846,-26436,-18311,888,426
4958,11328,11338,34,-23,937,-47,45,48,-22,-24145,-26298,-18215,890,427
4958,11351,11360,22,-26,923,271,50,44,-26,-23744,-26526,-18311,892,428
4958,11373,11383,22,-23,931,111,42,42,-21,-23804,-26508,-18323,889,429
4958,11399,11409,19,-22,930,-143,46,42,-25,-23786,-26340,-18269,892,430
4958,11422,11432,29,-23,920,207,51,45,-20,-23876,-26490,-18257,891,431
4958,11445,11455,32,-26,928,31,52,43,-27,-23912,-26508,-18179,891,432
4958,11467,11477,30,-23,930,159,50,50,-20,-23966,-26502,-18557,889,433
4958,11490,11500,23,-22,934,-303,46,43,-25,-24056,-26466,-18449,890,434
4958,11513,11522,37,-23,930,447,46,48,-24,-24020,-26424,-18682,890,435
4958,11535,11545,28,-13,930,255,43,43,-24,-23918,-26430,-18365,891,436
4958,11558,11568,27,-10,937,415,50,45,-22,-23954,-26370,-18503,892,437
4958,11580,11590,26,-15,934,159,46,44,-27,-23786,-26550,-18263,892,438
4958,11603,11613,34,-21,928,143,44,45,-22,-23690,-26352,-18569,889,439
4958,11626,11635,23,-22,930,383,52,40,-21,-23834,-26604,-18640,892,440
4958,11648,11658,28,-22,937,351,46,42,-25,-23649,-26574,-18533,891,441
4958,11671,11681,29,-24,924,-207,45,46,-27,-23960,-26263,-18096,892,442
4958,11693,11703,27,-22,936,31,45,41,-22,-23810,-26502,-18521,890,443
4958,11719,11729,28,-26,920,367,45,42,-21,-23804,-26508,-18144,892,444
4958,11742,11752,30,-26,937,-175,52,40,-22,-24014,-26418,-18347,890,445
4958,11765,11774,35,-16,935,-191,48,49,-22,-23900,-26322,-18054,888,446
4958,11787,11797,36,-26,925,367,46,41,-24,-23960,-26334,-18203,891,447
4958,11810,11820,34,-13,934,287,45,44,-25,-24056,-26472,-18443,890,448
4958,11833,11842,31,-15,932,-63,46,45,-25,-23960,-26526,-18239,889,449
4958,11855,11865,23,-19,926,-63,46,46,-22,-23990,-26316,-18353,887,450
4958,11878,11888,25,-18,936,0,43,37,-24,-23864,-26334,-18395,889,451
4958,11900,11910,32,-23,933,0,49,41,-26,-23900,-26460,-18431,891,452
4958,11923,11933,23,-10,926,191,48,44,-22,-23954,-26526,-18335,887,453
4958,11946,11955,22,-16,940,-111,49,45,-22,-23984,-26478,-18275,891,454
4958,11968,11978,26,-15,930,0,46,45,-25,-23876,-26442,-18347,889,455
4958,11991,12001,31,-23,935,111,46,46,-24,-23804,-26502,-18389,888,456
4958,12014,12023,35,-19,932,319,45,45,-26,-23744,-26370,-18221,887,457
4958,12040,12049,26,-19,929,175,49,41,-24,-23768,-26233,-18173,890,458
4958,12062,12072,27,-14,929,111,45,41,-29,-23834,-26586,-18269,889,459
4958,12085,12095,30,-23,929,175,46,43,-24,-23738,-26592,-18305,888,460
4958,12108,12118,32,-13,937,399,43,44,-19,-23679,-26418,-17910,890,461
4958,12131,12141,40,-21,941,223,48,43,-21,-23661,-26484,-18413,891,462
4958,12154,12164,30,-30,930,191,53,41,-21,-23894,-26358,-18144,892,463
4958,12176,12186,47,-14,923,95,43,50,-24,-23822,-26454,-18114,893,464
4958,12199,12209,26,-17,930,-303,44,41,-26,-24002,-26682,-18425,891,465
4958,12222,12232,24,-26,922,-287,44,42,-24,-23702,-26448,-18263,892,466
4958,12245,12255,21,-14,928,319,48,45,-21,-23852,-26472,-18287,891,467
4958,12268,12278,29,-17,924,287,48,41,-21,-23942,-26526,-18341,888,468
4958,12290,12300,19,-13,926,0,43,41,-20,-23924,-26658,-17820,892,469
4958,12326,12336,27,-21,927,255,42,42,-26,-23876,-26610,-18000,890,470
4958,12349,12359,32,-16,924,-47,48,43,-28,-24032,-26568,-18191,890,471
4958,12375,12385,26,-15,933,-495,49,45,-19,-23679,-26658,-17629,891,472
4958,12398,12408,33,-10,941,159,50,41,-28,-23864,-26556,-17922,890,473
4958,12421,12430,25,-12,929,335,45,48,-22,-23762,-26634,-18197,890,474
4958,12443,12453,33,-28,924,191,48,43,-24,-23822,-26586,-17760,893,475
4958,12466,12476,19,-21,926,463,40,49,-20,-24080,-26514,-17850,889,476
4958,12489,12499,30,-20,935,15,46,40,-27,-23798,-26424,-18048,892,477
4958,12512,12522,34,-21,934,79,42,41,-19,-23762,-26532,-18305,890,478
4958,12535,12544,26,-20,932,0,50,48,-19,-23792,-26544,-18173,893,479
4958,12557,12567,26,-26,930,-159,45,35,-26,-23762,-26400,-18347,889,480
4958,12580,12590,28,-25,933,-223,49,33,-28,-23846,-26520,-18024,888,481
4958,12603,12613,32,-22,926,95,50,45,-22,-23876,-26729,-18018,890,482
4958,12633,12643,34,-19,930,687,48,44,-26,-23870,-26634,-18060,893,483
4958,12656,12666,33,-15,943,-223,49,37,-27,-23864,-26700,-17970,889,484
4958,12679,12689,28,-9,930,-47,46,37,-26,-23960,-26694,-18341,891,485
4958,12717,12727,28,-28,927,-191,45,43,-21,-23870,-26622,-18209,891,486
4958,12740,12749,38,-28,930,-175,44,42,-26,-23972,-26664,-18185,892,487
4958,12762,12772,30,-25,930,15,48,40,-20,-23870,-26520,-17994,891,488
4958,12785,12795,24,-18,923,303,46,42,-25,-23852,-26562,-18401,889,489
4958,12808,12818,17,-15,917,63,51,41,-25,-23894,-26472,-18395,890,490
4958,12831,12840,30,-17,933,175,43,44,-21,-23792,-26538,-18167,893,491
4958,12853,12863,32,-14,928,31,48,43,-24,-23858,-26550,-18191,890,492
4958,12876,12886,28,-21,924,95,52,49,-20,-23858,-26700,-18167,890,493
4958,12899,12909,119,-202,945,-431,32,44,-21,-24169,-26418,-18167,891,494
4958,13070,13080,58,6,962,271,46,42,-25,-24151,-26598,-18287,864,496
4958,13254,13264,18,-19,895,431,41,40,-26,-23984,-26227,-18036,859,498
4958,13429,13439,59,-23,925,-399,40,40,-24,-24217,-26670,-17862,857,500
4958,13604,13614,82,-4,913,495,46,40,-25,-24116,-26514,-18239,856,502
4958,13781,13791,32,-39,904,159,41,42,-24,-24217,-26562,-18090,863,504
4958,13956,13966,43,-160,899,79,42,45,-25,-24145,-26310,-17796,856,506
4958,14167,14176,48,-27,900,191,44,36,-19,-23990,-26095,-18108,862,508
4958,14342,14352,53,-18,940,0,49,41,-25,-24211,-26251,-18150,857,510
4958,14519,14529,87,25,912,191,50,45,-24,-23846,-26227,-18108,858,512
4958,14695,14704,104,-102,773,319,49,43,-19,-24157,-26263,-18239,858,514
4958,14870,14879,-12,-54,928,-207,53,40,-26,-24301,-26191,-18239,856,516
4958,15047,15057,57,-20,906,0,41,40,-24,-24343,-26358,-18209,856,518
4958,15222,15231,213,132,835,351,45,46,-20,-23930,-26676,-18413,855,520
4958,15396,15405,34,-15,899,-15,48,48,-21,-23936,-26436,-18293,863,522
4958,15567,15577,119,1,883,223,46,43,-27,-24253,-26418,-18401,863,524
4958,15744,15754,47,-67,980,0,49,42,-19,-24313,-26706,-18742,857,526
4958,15920,15929,-7,-28,863,-143,48,46,-22,-24205,-26628,-18359,857,528
4958,16095,16104,-225,1024,306,63,45,49,-30,-24032,-26466,-18634,863,530
4958,16270,16280,32,-37,928,175,42,43,-24,-23870,-26418,-18616,866,532
4958,16448,16458,38,-15,929,287,44,42,-24,-23888,-26538,-18676,862,534
4958,16623,16633,36,-15,926,143,46,42,-25,-23972,-26574,-18383,857,536
4958,16806,16815,26,-17,936,-47,40,45,-27,-23834,-26388,-18251,857,538
4958,16983,16993,36,-21,932,271,44,40,-28,-23774,-26358,-18473,857,540
4958,17158,17168,28,-16,930,255,32,44,-22,-23798,-26340,-18395,860,542
4958,17333,17343,34,-17,939,63,49,41,-24,-24074,-26568,-18515,858,544
4958,17508,17518,33,-14,924,463,44,44,-25,-23858,-26562,-18443,858,546
4958,17687,17697,26,-13,930,319,46,43,-26,-23924,-26490,-18491,865,548
4958,17862,17872,30,-19,934,303,49,43,-24,-23876,-26496,-18371,857,550
4958,18036,18046,27,-21,930,47,50,43,-21,-24038,-26400,-18575,858,552
4958,18213,18222,32,-17,934,191,49,46,-25,-23984,-26490,-18479,861,554
4958,18388,18398,26,-20,934,31,48,41,-25,-24044,-26448,-18341,863,556
4958,18563,18573,26,-19,933,-223,41,42,-27,-24008,-26592,-18365,858,558
4958,18738,18748,31,-17,931,-127,48,42,-28,-23882,-26604,-18377,862,560
4958,18916,18925,24,-13,930,367,41,42,-28,-24092,-26496,-18197,864,562
4958,19091,19100,36,-26,938,-255,45,41,-28,-23888,-26676,-18640,857,564
4958,19266,19275,32,-19,928,223,46,42,-28,-23714,-26412,-18515,860,566
4958,19452,19462,28,-26,937,-191,40,42,-22,-23864,-26460,-18239,859,568
4958,19627,19637,24,-23,940,-239,46,41,-25,-23846,-26442,-18712,856,570
4958,19803,19812,20,-26,933,127,42,48,-26,-23912,-26382,-18593,858,572
4958,19978,19988,28,-21,932,-31,43,41,-25,-23936,-26634,-18299,856,574
4958,20155,20165,27,-19,933,-223,46,42,-24,-23810,-26430,-18413,859,576
4958,20337,20347,22,-27,932,127,49,37,-20,-23708,-26406,-18395,863,578
4958,20512,20522,29,-19,929,15,46,43,-27,-23912,-26670,-18479,858,580
4958,20689,20699,28,-21,931,-399,42,41,-21,-23714,-26574,-18341,862,582
4958,20864,20874,27,-22,930,-79,45,42,-18,-24056,-26370,-18605,858,584
4958,21039,21049,29,-26,927,319,43,45,-25,-23900,-26574,-18179,863,586
4958,21214,21224,28,-21,928,-63,51,40,-24,-23858,-26316,-18557,857,588
4958,21392,21401,45,-8,915,-239,48,41,-27,-24050,-26131,-18593,859,590
4958,21567,21577,36,-26,928,-79,42,44,-22,-24181,-26101,-18515,865,592
4958,21742,21752,69,-78,978,-207,40,38,-25,-23876,-26418,-18688,858,594
4958,21917,21927,21,1,895,79,46,42,-20,-23906,-26442,-18676,858,596
4958,22103,22113,51,-73,1074,-223,50,42,-26,-24235,-26376,-18407,857,598
4958,22279,22289,43,-29,939,0,44,44,-25,-24301,-26574,-18515,864,600
4958,22462,22471,-21,-19,926,-159,43,38,-17,-24187,-26436,-18569,858,602
4958,22639,22649,13,-48,977,175,45,45,-28,-24181,-26364,-18461,856,604
4958,22814,22824,33,-17,955,-79,56,44,-22,-24175,-26490,-18233,864,606
4958,22989,22999,4,-29,911,255,45,37,-24,-24157,-26544,-18245,857,608
4958,23164,23174,52,-26,905,-47,48,34,-22,-24056,-26694,-18371,859,610
4958,23351,23361,28,-41,916,79,46,43,-27,-24193,-26700,-18197,867,612
4958,23526,23536,-11,-30,927,-207,50,45,-20,-24133,-26490,-18203,856,614
4958,23701,23711,4,-12,921,-255,43,44,-19,-24277,-26849,-18275,863,616
4958,23879,23888,49,-28,899,47,46,43,-26,-24379,-26622,-18443,858,618
4958,24054,24063,0,-5,949,271,45,42,-27,-23930,-26406,-18545,862,620
4958,24229,24239,26,-3,935,143,49,40,-25,-24379,-26819,-18311,864,622
4958,24404,24414,13,21,901,223,38,42,-18,-24199,-26664,-18329,862,624
4958,24581,24591,30,-28,924,191,50,42,-27,-23858,-26592,-18281,858,626
4958,24764,24774,19,-16,926,95,48,45,-26,-24062,-26658,-18413,857,628
4958,24939,24949,15,-27,923,-95,45,42,-25,-23852,-26436,-18096,863,630
4958,25117,25126,34,-28,930,591,50,40,-26,-24157,-26568,-18251,860,632
4958,25292,25301,34,-23,925,-111,48,38,-28,-24211,-26544,-18443,858,634
4958,25467,25476,26,-17,928,367,41,41,-22,-24128,-26670,-18233,867,636
4958,25642,25651,37,-23,941,-63,48,40,-27,-24181,-26628,-18251,859,638
4958,25819,25828,23,-26,933,335,49,46,-19,-24110,-26694,-18126,863,640
4958,25992,26001,24,-18,930,-287,53,44,-22,-24068,-26239,-18479,865,642
4958,26167,26176,31,-23,919,-239,44,37,-21,-24122,-26370,-18449,865,644
4958,26344,26354,33,-16,928,415,50,45,-22,-23912,-26448,-18060,863,646
4958,26519,26529,23,-20,923,-191,50,42,-24,-24044,-26358,-18401,861,648
4958,26694,26704,33,-18,932,431,43,42,-25,-24014,-26622,-18365,857,650
4958,26870,26879,32,-17,913,431,38,38,-27,-24008,-26454,-18191,859,652
4958,27047,27057,26,-14,924,255,46,46,-26,-24086,-26520,-18395,864,654
4958,27222,27232,25,-15,931,351,52,38,-18,-24122,-26478,-18114,860,656
4958,27405,27415,32,-30,933,15,45,36,-22,-24044,-26442,-18054,866,658
4958,27580,27590,28,-19,925,207,38,46,-24,-24020,-26460,-17952,864,660
4958,27759,27769,32,-21,928,287,45,44,-24,-24157,-26388,-18365,864,662
4958,27934,27944,30,-21,940,0,53,37,-20,-24068,-26604,-17982,859,664
4958,28109,28119,30,-26,928,-63,45,44,-24,-23978,-26131,-18072,857,666
4958,28286,28296,36,-22,930,-239,45,43,-24,-23888,-26280,-18209,857,668
4958,28469,28478,24,-21,932,-63,44,41,-25,-24002,-26454,-17946,861,670
4958,28642,28651,30,-24,932,47,43,46,-20,-24086,-26508,-17928,858,672
4958,28816,28826,31,-17,928,127,41,41,-18,-24038,-26604,-17730,860,674
4958,28995,29005,26,-18,917,0,45,48,-24,-24032,-26544,-18030,862,676
4958,29171,29180,31,-22,941,239,44,45,-27,-24092,-26400,-18114,863,678
4958,29346,29355,32,-21,948,-47,57,44,-22,-24229,-26394,-18126,859,680
4958,29523,29533,32,-23,921,47,45,37,-26,-23972,-26424,-18221,863,682
4958,29698,29708,27,-18,928,447,43,41,-25,-24205,-26448,-18000,856,684
4958,29873,29883,30,-15,914,-47,46,46,-22,-23930,-26616,-18156,867,686
4958,30056,30066,22,-17,930,63,46,43,-25,-23936,-26508,-18221,858,688
4958,30233,30243,28,-20,933,-15,45,40,-25,-23870,-26436,-18132,866,690
4958,30408,30418,27,-28,929,-79,50,43,-25,-23912,-26568,-18335,867,692
4958,30584,30593,22,-18,924,335,46,42,-22,-23906,-26430,-17952,864,694
4958,30761,30771,29,-14,935,47,49,37,-25,-24062,-26436,-18257,857,696
4958,30936,30946,23,-24,926,271,43,37,-21,-23948,-26544,-18263,863,698
4958,31111,31121,30,-28,932,303,48,40,-26,-24104,-26430,-18215,858,700
4958,31284,31294,32,-23,928,127,49,40,-25,-24050,-26694,-18814,864,702
4958,31473,31483,32,-23,931,-143,45,37,-24,-24044,-26658,-18700,867,704
4958,31649,31658,30,-17,934,47,50,42,-24,-24098,-26568,-18239,857,706
4958,31824,31834,36,-26,930,223,48,44,-22,-24092,-26412,-18485,858,708
4958,32009,32019,23,-21,930,175,45,43,-27,-23834,-26580,-18616,858,710
4958,32184,32194,28,-16,926,-95,40,46,-25,-24110,-26604,-18215,868,712
4958,32359,32369,33,-17,920,-415,49,45,-21,-23996,-26520,-18156,866,714
4958,32534,32544,30,-21,935,159,44,44,-26,-24151,-26586,-18419,856,716
4958,32721,32730,29,-28,927,-223,42,43,-22,-24086,-26286,-18395,857,718
4958,32910,32920,41,-15,925,319,49,43,-25,-24098,-26502,-18509,864,720
4958,33085,33095,32,-21,927,399,50,40,-26,-24187,-26598,-18581,866,722
4958,33260,33270,29,-24,930,159,52,48,-25,-24128,-26646,-18329,857,724
4958,33439,33448,34,-24,930,-31,51,45,-26,-24104,-26628,-18401,858,726
4958,33614,33623,35,-20,926,383,44,40,-25,-24104,-26490,-18491,864,728
4958,33789,33799,33,-16,920,-127,46,49,-24,-23750,-26382,-18509,860,730
4958,33965,33975,21,-26,931,415,46,44,-24,-24205,-26598,-18365,865,732
