count,tInitial,tFinal,accel_x,accel_y,accel_z,accel_high,gyro_x,gyro_y,gyro_z,mag_x,mag_y,mag_z,temp
0,1343,1353,32,-20,900,0,199,-817,107,18570,28552,-19323,-24576
1,1443,1453,37,-24,904,175,203,-814,108,18570,28558,-19389,24576
2,1466,1475,39,-16,899,287,202,-821,109,18576,28773,-18826,16384
3,1488,1498,41,-19,902,-63,195,-816,110,18618,28749,-18760,8192
4,1511,1521,30,-21,898,15,196,-821,106,18600,28743,-18952,16384
5,1534,1544,30,-24,898,191,201,-815,105,18684,28791,-18862,-24576
6,1557,1566,30,-27,905,111,201,-818,108,18636,28899,-18826,-32768
7,1579,1589,39,-22,899,-31,201,-812,107,18660,28677,-19197,8192
8,1602,1612,34,-23,898,175,197,-817,107,18450,28821,-18838,16384
9,1625,1634,36,-13,906,-159,197,-821,107,18552,28815,-18970,0
10,1647,1657,34,-22,902,-31,201,-816,110,18630,28552,-18976,8192
11,1670,1680,29,-15,898,223,195,-823,110,18713,28653,-19179,-24576
12,1693,1703,24,-28,890,111,201,-820,110,18516,28689,-19173,0
13,1715,1725,33,-24,900,15,199,-813,108,18672,28576,-19071,16384
14,1764,1774,36,-26,909,15,200,-823,110,18420,28731,-18994,-32768
15,1787,1797,34,-18,910,63,197,-818,106,18624,28665,-19024,-8192
16,1810,1820,26,-18,904,31,199,-820,110,18564,28767,-19083,-32768
17,1833,1843,30,-25,913,-127,200,-818,106,18612,28653,-19119,24576
18,1856,1866,39,-30,902,111,200,-820,108,18576,28755,-19347,0
19,1879,1889,32,-13,913,31,199,-815,112,18414,28851,-19299,-8192
20,1902,1911,20,-21,902,175,199,-820,110,18474,28593,-19197,-8192
21,1925,1934,32,-15,902,335,192,-820,110,18270,28839,-19167,-16384
22,1947,1957,33,-19,906,-159,200,-812,107,18528,28755,-19155,-8192
23,1970,1980,26,-15,906,175,195,-817,109,18360,28755,-19155,-32768
24,1993,2003,32,-19,910,-431,195,-816,113,18564,28564,-19347,-32768
25,2016,2026,34,-20,903,-175,197,-820,110,18636,28785,-19425,16384
26,2039,2049,34,-21,908,127,201,-815,106,18552,28809,-19179,16384
27,2089,2099,34,-18,915,399,193,-821,107,18678,28707,-19143,0
28,2112,2122,31,-23,913,-175,199,-821,106,18462,28767,-19155,8192
29,2135,2144,33,-17,904,-351,197,-823,108,18707,28617,-19054,-16384
30,2158,2167,28,-21,909,-175,201,-815,113,18570,28779,-19024,-16384
31,2180,2190,34,-16,906,191,199,-820,115,18444,28857,-19514,-16384
32,2203,2213,23,-24,911,31,195,-823,107,18672,28755,-19425,-32768
33,2226,2236,31,-24,910,63,196,-820,108,18612,28905,-19209,0
34,2249,2259,36,-23,915,287,204,-815,110,18648,28857,-19024,-24576
35,2272,2282,28,-26,906,-239,194,-816,108,18444,28689,-19377,8192
36,2295,2305,28,-26,915,47,196,-822,106,18450,28893,-19012,-24576
37,2318,2328,28,-23,909,159,196,-820,104,18719,28935,-19179,-32768
38,2341,2351,30,-17,907,-143,197,-818,108,18522,28911,-19036,-32768
39,2364,2374,30,-21,909,527,200,-820,109,18690,29019,-19275,-16384
40,2419,2429,28,-10,915,-175,193,-818,109,18354,28995,-19215,0
41,2442,2452,31,-26,915,223,195,-824,112,18564,28869,-19179,-8192
42,2465,2474,34,-16,920,-255,204,-817,108,18247,28899,-19113,24576
43,2488,2497,33,-19,908,111,194,-816,107,18366,28887,-19437,-24576
44,2510,2520,23,-22,911,111,193,-818,107,18211,28971,-19239,24576
45,2533,2543,28,-21,909,79,196,-814,107,18157,28881,-19317,16384
46,2556,2566,32,-19,916,383,204,-818,108,18235,28875,-19077,0
47,2579,2589,26,-13,909,0,200,-823,108,18324,28785,-19401,16384
48,2602,2612,31,-15,917,255,196,-821,106,18282,28899,-19149,-16384
49,2625,2635,23,-17,915,-79,188,-825,109,18564,29066,-19413,-32768
50,2648,2658,23,-19,910,79,202,-820,101,18438,29025,-19562,16384
51,2671,2680,26,-14,915,-63,197,-821,107,18420,29060,-19401,24576
52,2693,2703,28,-22,910,-63,199,-818,104,18318,29072,-19233,8192
53,2742,2752,30,-23,920,351,194,-822,112,18402,28875,-19018,0
54,2765,2775,28,-18,913,127,197,-818,110,18444,28977,-18874,-32768
55,2788,2798,43,-17,915,143,195,-822,108,18229,28905,-19215,-16384
56,2811,2821,19,-21,907,-127,189,-817,114,18175,28995,-19203,-16384
57,2834,2844,38,-19,928,-351,189,-818,107,18588,28665,-19149,8192
58,2857,2867,36,-23,922,-175,194,-820,107,18468,28839,-19413,16384
59,2880,2889,31,-26,896,287,194,-818,106,18498,28767,-19089,24576
60,2903,2912,46,-3,916,-223,194,-823,102,18504,28923,-18988,-8192
61,2925,2935,42,-20,917,-287,200,-818,110,18462,28917,-19071,-8192
62,2948,2958,30,-19,922,63,193,-820,110,18444,28845,-19113,-8192
63,2971,2981,38,-21,928,255,200,-817,107,18420,28564,-19149,24576
64,2994,3004,31,-20,922,95,194,-818,107,18630,28749,-19042,-32768
65,3017,3027,30,-20,912,-63,195,-822,108,18588,28743,-19161,16384
66,3067,3076,32,-17,921,-111,193,-822,107,18737,28881,-19383,8192
67,3089,3099,43,5,925,-47,193,-822,106,18684,28941,-19353,-24576
68,3112,3122,56,-31,987,303,-1188,3226,4730,18354,28809,-19191,0
69,3135,3145,29,-31,906,15,220,-608,-196,18432,28929,-19311,-32768
70,3158,3168,21,-17,909,319,160,-364,-172,18540,28767,-19257,-16384
71,3181,3191,45,-21,915,-207,114,-177,-146,18498,28869,-19293,8192
72,3204,3214,41,-5,920,303,76,-33,-122,18540,28881,-19215,0
73,3227,3236,34,-16,914,-63,49,86,-100,18528,29066,-18922,8192
74,3249,3259,20,-28,925,0,22,173,-93,18564,28827,-18958,-24576
75,3272,3282,34,-23,915,79,13,232,-102,18360,28857,-19125,-16384
76,3295,3305,29,-26,915,-111,2,282,-96,18582,29138,-19215,-16384
77,3318,3328,39,-26,926,-383,-2,306,-94,18510,29066,-19233,8192
78,3341,3351,30,-16,910,191,-8,316,-89,18504,29240,-19215,-24576
79,3390,3399,34,-27,909,255,-13,324,-83,18570,29030,-19287,-32768
80,3412,3422,35,-26,918,0,-11,319,-84,18444,28965,-19269,0
81,3435,3445,34,-10,933,159,-11,315,-81,18516,29084,-19317,-16384
82,3458,3468,32,-22,926,-239,-13,306,-82,18498,28929,-19089,-24576
83,3481,3491,38,-25,920,447,-8,298,-81,18654,28959,-19502,-8192
84,3504,3514,34,-16,919,399,-9,281,-76,18582,29102,-19449,-16384
85,3527,3536,30,-27,916,351,-1,268,-72,18612,29186,-19532,-16384
86,3549,3559,21,-25,924,-143,4,251,-67,18534,28923,-19401,-32768
87,3572,3582,30,-14,920,175,3,243,-66,18516,29025,-19323,-24576
88,3595,3605,32,-11,911,191,8,231,-51,18450,28851,-19155,-32768
89,3618,3628,43,-15,920,143,9,213,-46,18678,29007,-19311,0
90,3641,3651,26,-19,915,-207,5,196,-38,18498,28959,-19353,-16384
91,3664,3674,38,-17,920,-319,11,196,-37,18408,28965,-19311,-32768
92,3712,3722,34,-21,916,-159,18,161,-36,18684,29126,-19383,16384
93,3735,3745,31,-18,924,511,18,149,-30,18402,29072,-19407,-8192
94,3758,3768,33,-17,917,-95,14,136,-28,18642,29084,-19173,16384
95,3781,3791,29,-26,927,-31,25,122,-29,18516,28983,-19251,24576
96,3804,3814,29,-23,918,127,26,114,-25,18510,28917,-19221,-24576
97,3827,3836,34,-19,915,-111,26,101,-34,18241,29372,-19030,-8192
98,3849,3859,23,-34,924,-15,29,84,-33,18492,29300,-19024,-24576
99,3872,3882,32,-23,922,319,32,78,-34,18534,28983,-19269,24576
100,3895,3905,52,-7,902,175,38,69,-37,18294,29007,-19197,24576
101,3918,3928,27,-30,919,447,34,50,-34,18588,29090,-19287,8192
102,3941,3951,28,-21,918,175,43,44,-46,18450,29030,-19383,-8192
103,3964,3973,30,-24,917,223,42,43,-49,18534,28893,-19036,8192
104,3986,3996,39,-11,922,-383,41,43,-48,18618,28941,-19383,-24576
105,4009,4019,39,-13,922,15,42,45,-43,18773,28971,-19071,-32768
106,4059,4069,33,-31,926,-175,46,41,-46,18546,28893,-19437,-24576
107,4082,4091,34,-26,924,47,43,41,-49,18696,29084,-19443,24576
108,4104,4114,33,-23,922,335,43,46,-49,18576,28911,-19311,24576
109,4127,4137,30,-19,919,-223,41,45,-46,18588,29102,-19359,-32768
110,4150,4160,37,-16,933,-191,50,41,-48,18684,29084,-19299,-32768
111,4173,4182,31,-23,922,-303,41,46,-45,18642,28881,-19185,-16384
112,4195,4205,35,-23,916,63,44,42,-48,18713,29216,-19143,16384
113,4218,4228,33,-26,929,319,43,38,-44,18570,29030,-19054,0
114,4241,4251,37,-28,921,111,42,45,-48,18648,29007,-19239,16384
115,4264,4273,33,-23,917,-175,46,43,-42,18797,28995,-19497,-24576
116,4286,4296,30,-24,917,175,45,46,-42,18743,29174,-19389,24576
117,4309,4319,18,-21,922,-63,40,51,-48,18648,29294,-19299,16384
118,4332,4342,30,-17,920,127,42,48,-48,18546,29150,-18748,16384
119,4366,4376,36,-31,928,335,40,46,-52,18498,28941,-19227,24576
120,4389,4399,34,-19,924,63,43,43,-50,18731,29048,-19006,-24576
121,4412,4421,41,-9,912,639,42,38,-49,18588,29108,-19131,8192
122,4434,4444,39,-11,924,-191,40,40,-44,18701,29174,-19113,-32768
123,4457,4467,22,-30,924,-175,48,49,-44,18432,28947,-19083,-32768
124,4480,4490,23,-34,913,111,45,40,-45,18582,29156,-19407,24576
125,4503,4512,33,-32,917,-207,41,44,-44,18426,29060,-19155,-32768
126,4525,4535,37,-25,926,159,38,46,-49,18624,29156,-19251,-16384
127,4548,4558,37,-17,917,511,40,50,-45,18504,29013,-19209,-16384
128,4571,4581,39,-15,915,31,38,45,-48,18426,28977,-19287,-32768
129,4593,4603,26,-21,924,335,44,45,-49,18258,29001,-19335,-24576
130,4616,4626,37,-30,917,-223,44,46,-49,18486,28911,-19335,-16384
131,4639,4649,24,-18,922,0,49,49,-44,18576,28929,-19317,-16384
132,4665,4675,11,-26,900,175,45,43,-48,18540,29048,-19389,-8192
133,4688,4698,30,-23,926,-159,48,44,-46,18600,29060,-19125,16384
134,4711,4720,43,-9,933,-143,46,41,-48,18713,29126,-19431,-24576
135,4733,4743,26,-19,917,-111,42,43,-51,18384,29060,-19508,0
136,4756,4766,29,-28,922,-127,43,35,-52,18696,29048,-19131,16384
137,4779,4789,32,-27,930,143,43,40,-43,18540,29222,-19401,-16384
138,4801,4811,26,-23,926,255,45,49,-44,18600,29180,-19263,24576
139,4824,4834,33,-17,925,271,45,42,-41,18558,28803,-19054,-32768
140,4847,4857,33,-18,910,687,41,46,-45,18474,28923,-19395,-16384
141,4870,4879,23,-24,911,-447,33,41,-43,18636,29198,-19113,8192
142,4892,4902,33,-21,917,191,41,42,-49,18492,29276,-19018,16384
143,4915,4925,36,-13,930,191,43,45,-50,18450,29078,-19335,-8192
144,4938,4948,37,-19,926,0,41,45,-50,18372,29090,-19030,16384
145,4964,4974,31,-19,923,319,43,44,-49,18564,29036,-18958,16384
146,4987,4997,36,-17,930,15,38,45,-43,18486,29276,-19233,-32768
147,5009,5019,36,-19,926,-95,41,46,-41,18666,28983,-19365,24576
148,5032,5042,40,-18,928,207,48,40,-46,18468,28989,-19149,16384
149,5055,5065,32,-29,928,159,41,43,-43,18480,28827,-18952,0
150,5078,5087,21,-28,915,-175,45,45,-48,18588,28899,-19113,24576
151,5100,5110,21,-18,922,-127,46,48,-44,18396,28833,-19293,8192
152,5123,5133,28,-13,921,191,43,40,-45,18600,28923,-18964,-32768
153,5146,5156,30,-15,922,-191,49,44,-43,18576,29192,-19389,-16384
154,5168,5178,34,-29,913,-79,44,45,-51,18594,29001,-19317,-32768
155,5191,5201,30,-28,922,175,42,43,-49,18486,29108,-19179,8192
156,5214,5224,23,-21,917,351,41,45,-45,18624,29066,-19269,8192
157,5237,5246,44,-21,917,-223,44,45,-44,18588,28851,-19191,16384
158,5263,5273,42,-24,926,-319,48,46,-45,18408,28905,-19269,-8192
159,5286,5295,31,-15,929,-303,42,41,-49,18438,28869,-19431,16384
160,5308,5318,36,-21,919,-143,43,45,-43,18570,29007,-19431,0
161,5331,5341,28,-21,917,143,41,41,-44,18354,28941,-19173,16384
162,5354,5363,30,-16,923,127,44,45,-42,18474,29001,-19508,16384
163,5376,5386,28,-23,928,0,45,48,-40,18432,28905,-19233,0
164,5399,5409,31,-15,919,15,45,44,-43,18558,29019,-19353,-32768
165,5422,5432,30,-26,920,-79,38,42,-43,18414,29030,-19071,0
166,5453,5462,28,-17,926,255,40,46,-44,18282,28983,-18820,-32768
167,5475,5485,25,-17,922,-79,46,40,-49,18294,29108,-19089,24576
168,5511,5521,32,-17,928,127,42,43,-49,18570,29156,-19173,-32768
169,5533,5543,35,-23,933,-511,41,46,-44,18288,29048,-19077,0
170,5556,5566,30,-19,919,-63,36,42,-46,18450,29066,-18898,-24576
171,5582,5592,32,-26,928,-335,43,37,-42,18486,29132,-18970,-24576
172,5605,5615,24,-23,923,47,43,41,-46,18456,29013,-19155,-16384
173,5628,5638,26,-18,927,191,48,38,-46,18354,29234,-19095,0
174,5650,5660,39,-20,938,319,48,46,-48,18163,29030,-19317,-16384
175,5673,5683,34,-25,923,175,41,38,-46,18211,28785,-19155,-16384
176,5696,5706,28,-28,924,191,35,41,-43,18444,28863,-19227,8192
177,5718,5728,30,-26,915,463,45,40,-42,18600,28905,-19095,16384
178,5741,5751,26,-15,919,-127,42,41,-43,18294,29030,-19371,-16384
179,5764,5774,29,-21,920,-175,44,42,-43,18456,28953,-19281,16384
180,5787,5796,31,-18,924,-95,41,46,-43,18540,29126,-19592,-8192
181,5809,5819,35,-30,924,-367,44,48,-43,18480,29084,-19275,16384
182,5832,5842,36,-13,921,415,40,43,-45,18247,29204,-19024,16384
183,5855,5865,27,-19,921,111,38,42,-48,18312,29156,-19048,16384
184,5881,5891,29,-22,923,159,46,43,-43,18426,29204,-19203,-32768
185,5904,5913,28,-17,921,-143,38,45,-45,18258,29246,-19071,-32768
186,5926,5936,34,-15,928,15,45,48,-44,18498,29204,-19018,8192
187,5949,5959,30,-19,911,-495,42,37,-49,18372,29138,-19036,-8192
188,5972,5982,31,-15,925,159,41,43,-42,18444,28923,-19036,8192
189,5994,6004,39,-28,934,15,45,41,-50,18462,29150,-18736,24576
190,6017,6027,31,-19,923,159,46,45,-44,18504,29294,-18682,8192
191,6040,6050,35,-14,929,239,43,41,-45,18294,29342,-19257,-8192
192,6062,6072,24,-21,917,47,41,44,-46,18462,29066,-18964,-8192
193,6085,6095,38,-19,933,-95,46,48,-48,18330,29174,-19101,16384
194,6108,6118,30,-22,919,-399,43,41,-46,18510,29318,-19161,-24576
195,6130,6140,34,-28,915,255,41,46,-44,18348,29108,-19239,-16384
196,6153,6163,32,-15,921,-335,40,45,-52,18444,29084,-18952,16384
197,6179,6189,32,-16,926,127,46,41,-45,18396,29216,-19012,16384
198,6202,6212,38,-26,922,63,43,43,-43,18336,29174,-19263,16384
199,6225,6234,32,-18,929,367,42,42,-42,18229,29126,-18850,-24576
200,6247,6257,37,-23,931,255,43,50,-46,18169,29108,-18736,16384
201,6270,6280,35,-19,915,31,41,43,-40,18300,29264,-18802,16384
202,6293,6302,41,-16,933,0,38,48,-42,18426,29156,-19215,-16384
203,6315,6325,33,-10,917,31,42,42,-40,18432,29246,-19059,-16384
204,6338,6348,32,-19,925,31,50,42,-44,18456,29174,-18934,16384
205,6361,6370,39,-18,924,255,42,45,-42,18199,29288,-19137,16384
206,6383,6393,40,-21,937,127,41,42,-48,18294,29180,-19209,0
207,6406,6416,36,-26,928,0,45,41,-45,18312,29132,-19227,24576
208,6429,6438,29,-21,918,31,45,49,-44,18678,29078,-19359,24576
209,6451,6461,36,-29,918,143,41,43,-43,18294,29096,-19293,24576
210,6474,6484,39,-21,920,31,42,48,-43,18426,29048,-19083,-16384
211,6500,6510,29,-22,923,15,40,41,-43,18552,29240,-19018,16384
212,6523,6533,32,-17,915,-111,44,48,-43,18468,29036,-19407,-24576
213,6545,6555,37,-16,925,143,48,44,-41,18534,29054,-19431,16384
214,6568,6578,23,-23,926,111,50,46,-45,18528,29192,-19203,24576
215,6591,6601,30,-15,917,383,42,48,-44,18618,29168,-19479,-32768
216,6614,6623,33,-22,935,95,44,41,-45,18480,29030,-19233,16384
217,6636,6646,34,-23,925,63,43,48,-44,18288,29426,-19269,-16384
218,6659,6669,35,-23,932,-239,42,42,-44,18360,29150,-19203,-16384
219,6682,6691,34,-19,919,511,42,43,-46,18450,29174,-18934,0
220,6704,6714,38,-18,919,0,43,49,-49,18450,29234,-19024,-24576
221,6727,6737,25,-20,926,207,38,43,-46,18426,29156,-19065,8192
222,6750,6760,36,-20,927,31,41,44,-48,18492,29216,-19191,-32768
223,6772,6782,27,-20,924,-191,38,42,-40,18510,29246,-19054,-16384
224,6799,6808,36,-21,922,255,38,44,-42,18612,29390,-19000,0
225,6821,6831,27,-19,923,159,36,44,-42,18486,29312,-18952,-8192
226,6844,6854,28,-22,922,655,38,45,-42,18474,29078,-19191,0
227,6867,6877,32,-24,923,0,42,41,-44,18552,28947,-19269,-24576
228,6889,6899,30,-15,924,15,36,41,-41,18378,29066,-19209,-16384
229,6912,6922,36,-19,920,-431,40,49,-43,18253,29036,-19077,0
230,6935,6945,33,-23,930,207,38,41,-43,18312,28893,-18934,0
231,6957,6967,30,-18,922,463,44,44,-40,18462,29066,-19245,24576
232,6980,6990,36,-23,925,143,44,45,-51,18504,29096,-19167,0
233,7003,7013,41,-21,920,351,46,43,-40,18648,29096,-19341,-32768
234,7025,7035,30,-21,929,-95,46,44,-42,18492,29228,-19401,-24576
235,7048,7058,34,-21,924,63,43,48,-46,18324,29252,-19275,-24576
236,7071,7081,33,-17,914,-335,42,40,-45,18336,29150,-19167,-32768
237,7097,7107,38,-24,923,-127,45,48,-41,18582,28875,-19173,-24576
238,7120,7130,34,-15,918,319,41,42,-41,18462,29066,-19113,16384
239,7150,7160,32,-22,919,15,46,51,-37,18701,29108,-19221,-8192
240,7172,7182,26,-15,926,-79,42,43,-41,18456,29210,-18904,-32768
241,7195,7205,32,-19,938,159,51,48,-50,18576,29186,-18988,-16384
242,7218,7228,31,-17,917,207,48,42,-45,18486,29156,-19197,8192
243,7240,7250,45,-30,902,47,42,42,-50,18444,29252,-19197,24576
244,7263,7273,39,-14,928,-47,49,42,-43,18396,29132,-19000,0
245,7286,7296,30,-16,919,95,36,41,-41,18486,29276,-19431,-8192
246,7309,7319,27,-22,921,271,45,50,-41,18414,29150,-18994,-16384
247,7331,7341,34,-22,916,-223,46,46,-46,18360,29180,-18988,-16384
248,7354,7364,28,-22,914,-111,46,45,-42,18336,28893,-19149,16384
249,7377,7387,34,-21,919,31,45,44,-49,18426,29030,-19281,8192
250,7403,7413,40,-19,918,287,42,49,-50,18564,29007,-19323,8192
251,7426,7435,42,-24,928,175,42,46,-44,18552,29126,-19203,-8192
252,7448,7458,28,-15,922,-255,45,48,-49,18253,29030,-19143,0
253,7471,7481,26,-17,932,-383,40,44,-44,18336,28881,-19143,-8192
254,7494,7503,36,-20,919,15,42,50,-45,18288,28725,-18988,8192
255,7516,7526,34,-15,924,-223,50,49,-43,18480,28947,-19227,8192
256,7539,7549,34,-19,923,-319,53,45,-43,18468,28971,-19125,24576
257,7562,7571,23,-21,925,-287,43,45,-46,18486,29138,-19269,16384
258,7584,7594,32,-12,922,351,48,46,-44,18282,29198,-19233,0
259,7607,7617,41,-19,920,271,40,40,-40,18510,29222,-19353,16384
260,7630,7639,19,-17,926,-319,45,41,-45,18498,29102,-19233,-24576
261,7652,7662,31,-10,928,-175,46,40,-36,18516,29162,-19335,24576
262,7675,7685,21,-36,937,175,46,36,-38,18438,29025,-19443,-32768
263,7701,7711,40,-10,938,-159,46,54,-43,18384,29096,-19215,-32768
264,7724,7734,37,-22,932,383,43,44,-46,18360,29084,-19215,-32768
265,7746,7756,39,-20,930,31,42,45,-41,18276,29378,-18994,16384
266,7769,7779,36,-22,926,239,44,49,-40,18408,29114,-19413,-24576
267,7792,7802,28,-25,926,271,48,45,-44,18480,29025,-19257,-24576
268,7814,7824,28,-26,924,79,41,49,-45,18366,29174,-19293,-8192
269,7837,7847,32,-19,924,127,46,49,-37,18264,29120,-19293,-32768
270,7860,7869,34,-19,917,223,48,48,-37,18444,29102,-19245,0
271,7882,7892,21,-8,929,303,42,48,-41,18420,29138,-19335,-24576
272,7905,7915,32,-21,926,-111,52,42,-43,18300,29252,-19395,-32768
273,7928,7937,34,-17,926,-159,37,46,-46,18558,29312,-19335,-16384
274,7950,7960,39,-17,925,287,43,41,-43,18522,29126,-18916,16384
275,7973,7983,36,-28,927,0,41,43,-44,18498,28899,-19143,-16384
276,7999,8009,29,-20,924,175,43,44,-45,18552,28983,-19227,-8192
277,8022,8032,33,-22,933,447,40,45,-43,18456,28965,-19443,0
278,8044,8054,39,-15,930,127,41,45,-45,18384,29204,-19455,-16384
279,8067,8077,34,-15,917,-319,43,40,-48,18354,28899,-19365,16384
280,8090,8100,28,-13,915,-191,45,38,-44,18516,29132,-19377,-8192
281,8112,8122,33,-15,921,191,44,44,-49,18456,29108,-19221,-16384
282,8135,8145,21,-25,934,63,41,44,-43,18366,28899,-19604,0
283,8158,8167,34,-17,923,447,48,49,-48,18396,29270,-19281,16384
284,8180,8190,41,-10,926,95,44,44,-46,18402,29270,-19377,8192
285,8203,8213,32,-18,922,0,42,40,-43,18528,29378,-19191,-32768
286,8226,8235,29,-15,920,95,42,45,-49,18366,29108,-18898,-8192
287,8248,8258,26,-19,931,0,40,44,-42,18600,29084,-19335,-8192
288,8271,8281,23,-24,911,351,41,40,-48,18378,29084,-19221,-24576
289,8297,8307,44,-13,924,-15,44,45,-44,18390,29150,-19227,-16384
290,8320,8329,32,-14,922,255,38,41,-43,18390,29252,-19341,16384
291,8342,8352,31,-19,917,-95,45,46,-43,18426,29030,-19353,0
292,8365,8375,21,-32,922,255,48,46,-42,18456,29120,-19209,-24576
293,8388,8397,15,-29,922,335,44,44,-45,18432,28989,-19203,0
294,8410,8420,36,-28,922,287,45,44,-42,18288,29198,-18958,24576
295,8433,8443,34,-20,920,-559,43,48,-40,18223,29246,-19143,-8192
296,8455,8465,36,-25,919,143,42,48,-43,18306,29234,-19257,-16384
297,8478,8488,26,-9,912,0,42,46,-48,18414,29180,-19143,-24576
298,8501,8511,26,-13,921,511,44,43,-40,18342,29276,-19287,-32768
299,8523,8533,36,-10,926,511,43,44,-44,18330,29120,-18970,-32768
300,8546,8556,33,-21,930,63,43,42,-49,18079,29036,-19227,-24576
301,8569,8578,33,-28,928,127,44,38,-48,18181,29060,-19437,24576
302,8595,8605,33,-17,926,255,42,43,-48,18067,29264,-19257,-16384
303,8617,8627,36,-25,915,-143,45,40,-46,18061,29120,-19221,-8192
304,8640,8650,40,-19,927,-47,38,42,-49,18270,29204,-19203,24576
305,8663,8673,22,-21,930,15,40,43,-44,18151,29318,-19257,-24576
306,8685,8695,33,-17,928,0,42,42,-44,18151,29270,-19113,24576
307,8708,8718,32,-30,927,-271,45,44,-44,18139,29348,-19107,0
308,8731,8740,27,-32,917,127,43,50,-46,18324,29204,-18862,8192
309,8753,8763,23,-17,924,-447,44,45,-46,18510,29210,-19293,8192
310,8776,8786,27,-26,927,-31,37,43,-44,18504,29001,-19006,-16384
311,8799,8808,41,-16,926,-63,43,45,-51,18360,29156,-19042,0
312,8821,8831,28,-18,919,335,46,38,-45,18163,29246,-19257,-8192
313,8844,8854,36,-24,928,271,48,44,-43,18294,29007,-19059,16384
314,8867,8876,36,-21,917,79,45,44,-52,18426,29007,-19245,-8192
315,8889,8899,30,-23,915,95,41,42,-43,18306,29210,-19209,16384
316,8915,8925,35,-23,926,-63,38,43,-43,18396,29240,-18970,0
317,8938,8948,31,-23,926,159,45,38,-42,18462,29156,-19012,-16384
318,8961,8970,34,-28,921,-271,42,45,-45,18187,29126,-18910,-32768
319,8983,8993,23,-19,925,-319,44,42,-44,18306,29180,-19419,0
320,9006,9016,39,-19,922,95,43,43,-46,18384,29324,-19407,-8192
321,9029,9038,42,-13,925,111,44,40,-46,18426,29264,-19221,24576
322,9051,9061,23,-15,919,-111,46,46,-43,18504,29102,-18820,-32768
323,9074,9084,8,-33,983,-511,34,50,-40,18462,29288,-19030,16384
325,9207,9217,26,-26,965,-191,45,49,-44,18253,29671,-19467,-24576
327,9337,9347,32,-45,935,207,44,50,-51,18342,29300,-19215,-24576
329,9479,9489,38,-26,939,0,54,49,-49,18103,29444,-19401,0
331,9613,9623,91,6,904,63,51,46,-42,18019,29396,-19508,0
333,9747,9757,44,-28,822,-255,42,36,-46,18109,29318,-19347,8192
335,9878,9888,32,-8,902,207,42,40,-46,17780,29258,-19443,8192
337,10030,10040,33,-6,915,639,50,45,-43,17995,29144,-19119,-16384
339,10164,10174,41,14,979,-479,46,46,-51,18181,29330,-19131,20480
341,10295,10304,19,-18,894,-191,41,46,-45,17923,29456,-19532,16384
343,10429,10439,76,-2,895,-239,51,43,-35,17738,29390,-19251,16384
345,10563,10573,39,8,946,-143,41,44,-44,17672,29366,-19185,16384
347,10693,10703,40,-71,895,47,44,45,-46,17821,29007,-19383,16384
349,10827,10837,53,19,975,79,43,44,-44,17654,29210,-19167,-32768
351,10961,10971,31,-10,908,47,50,45,-43,17815,29414,-19281,-8192
353,11092,11102,38,-39,954,-159,42,42,-57,17815,29132,-19568,-24576
355,11226,11236,-4,-5,860,-191,40,44,-46,17738,29210,-19179,24576
357,11360,11370,113,-4,864,-63,41,48,-43,17516,29060,-19155,24576
359,11491,11501,24,-6,954,319,42,40,-49,17857,29150,-19065,24576
361,11634,11644,24,-43,1002,239,43,43,-44,17732,29162,-18916,-8192
363,11768,11778,21,-8,933,175,50,48,-38,17774,29162,-19077,0
365,11899,11909,65,-28,943,335,52,42,-38,17804,29156,-19532,16384
367,12035,12045,35,6,980,127,50,43,-43,17738,28995,-19227,-8192
369,12169,12179,54,-44,895,527,56,46,-40,17630,29216,-19030,16384
371,12303,12313,34,6,778,-47,40,42,-41,17917,28905,-19257,-24576
373,12433,12443,29,-19,922,15,49,46,-43,17857,29030,-19269,12288
375,12568,12578,26,-16,913,0,43,48,-44,17965,28995,-19149,28672
377,12702,12712,32,-28,930,-175,37,42,-41,17851,29144,-19054,24576
379,12833,12842,30,-30,920,-15,46,45,-46,17732,29144,-19143,-32768
381,12967,12977,24,-21,923,15,43,42,-45,17845,29096,-18928,20480
383,13110,13120,17,-20,921,-191,37,40,-50,17720,28965,-19227,4096
385,13241,13251,26,-25,923,-207,38,44,-48,18055,28911,-19203,12288
387,13375,13385,36,-20,929,-351,43,45,-43,17875,29048,-19161,-8192
389,13509,13519,28,-21,920,223,48,41,-44,17630,29013,-19036,0
391,13640,13650,36,-22,916,-335,46,41,-41,17780,29174,-19329,-28672
393,13774,13784,32,-19,928,79,42,42,-43,17965,29036,-19556,20480
395,13908,13917,32,-17,922,-111,40,45,-49,17786,29132,-19395,-16384
397,14038,14048,28,-19,920,223,41,46,-41,18049,29252,-19383,16384
399,14173,14182,26,-18,928,-159,43,44,-42,17947,29174,-19131,12288
401,14314,14324,35,-15,922,207,44,50,-46,17917,29240,-18982,-20480
403,14445,14455,33,-24,931,303,48,48,-44,17863,29246,-19137,-16384
405,14590,14600,39,-22,922,159,36,44,-45,17809,29019,-18970,-8192
407,14736,14745,31,-26,933,175,48,40,-46,17690,29114,-19293,-24576
409,14866,14876,29,-13,923,95,45,44,-44,17786,29204,-19101,-4096
411,15002,15012,39,-22,935,-79,44,44,-44,17833,29234,-19532,-12288
413,15136,15146,30,-23,915,159,43,41,-45,17678,29198,-19317,-32768
415,15270,15280,33,-17,922,511,45,43,-44,17863,29132,-19263,-24576
417,15400,15410,30,-20,924,319,45,44,-44,17762,29096,-19323,0
419,15535,15545,32,-29,920,559,41,38,-42,17780,29222,-19371,-16384
421,15669,15679,21,-12,920,271,43,44,-50,17893,29252,-19335,-8192
423,15807,15817,36,-26,926,383,41,42,-45,17732,29402,-18946,-20480
425,15941,15951,36,-30,922,-63,42,41,-49,17738,29156,-19311,-4096
427,16085,16095,33,-30,922,-95,42,45,-45,17815,29084,-19562,-12288
429,16215,16225,34,-26,927,-15,44,44,-46,17881,29132,-19113,24576
431,16349,16359,31,-17,930,175,45,49,-41,17762,29090,-18898,-8192
433,16483,16493,29,-21,922,0,44,48,-48,18013,29078,-19119,-12288
435,16614,16624,41,-20,916,-63,46,53,-44,17696,29126,-19119,-8192
437,16748,16758,28,-19,917,351,46,44,-43,17839,28959,-18862,-20480
439,16882,16892,37,-15,922,-399,44,43,-42,18049,29162,-19048,-12288
441,17013,17022,36,-20,933,367,43,48,-50,18037,29432,-19239,12288
443,17148,17158,37,-25,921,287,40,42,-48,17923,29156,-18946,0
445,17283,17292,29,-23,919,-15,43,45,-43,17839,29246,-18856,0
447,17413,17423,26,-20,924,-127,43,45,-41,18013,29019,-18868,8192
449,17549,17559,34,-18,917,255,36,46,-48,17804,28911,-18796,-8192
451,17692,17702,29,-23,913,335,44,45,-46,17798,28983,-19018,-24576
453,17827,17836,34,-21,923,143,43,43,-48,17887,28935,-19532,-4096
455,17957,17967,29,-25,924,-95,43,50,-43,17821,28929,-18910,-12288
457,18091,18101,27,-25,924,-79,50,45,-46,18235,28947,-18808,-16384
459,18226,18235,30,-24,924,15,42,44,-43,17798,28923,-18928,4096
461,18356,18366,28,-18,924,127,41,45,-43,17953,29234,-19227,4096
463,18490,18499,34,-23,920,175,50,44,-46,17959,29030,-19197,-8192
465,18624,18634,28,-22,922,143,46,41,-43,18043,29084,-19179,-12288
467,18755,18764,40,-30,923,303,42,49,-46,18007,29162,-19221,12288
469,18889,18899,32,-25,924,95,49,42,-45,17875,29013,-19359,8192
471,19023,19033,38,-30,923,95,40,37,-45,17959,28965,-19119,-12288
473,19163,19173,36,-19,926,575,45,41,-42,17768,29114,-18988,4096
475,19305,19315,32,-23,923,79,41,43,-46,17917,29180,-18964,4096
477,19439,19449,33,-21,922,319,44,43,-44,17845,29025,-18509,4096
479,19582,19592,29,-20,925,223,38,41,-46,18067,28971,-19089,16384
481,19731,19740,36,-16,937,-287,36,44,-40,17959,29066,-18904,8192
483,19864,19874,34,-28,922,143,44,42,-40,18151,29060,-18982,24576
485,19995,20004,38,-12,924,-159,44,44,-45,17905,29030,-19221,20480
487,20130,20140,39,-21,938,79,46,38,-46,17624,29036,-18694,0
489,20265,20274,43,-25,929,383,43,42,-44,17869,28977,-18778,16384
491,20399,20409,34,-24,926,-447,42,42,-46,18043,28905,-18928,16384
493,20529,20539,30,-23,926,15,43,46,-44,17821,28941,-19215,12288
495,20673,20682,19,-22,915,95,48,45,-43,17953,29072,-18688,-8192
497,20807,20817,36,-24,924,175,43,43,-44,17893,28875,-18892,4096
499,20938,20947,28,-23,928,447,42,46,-41,18061,29090,-18916,-32768
501,21072,21082,40,-28,925,511,45,49,-48,17821,28923,-18868,20480
503,21206,21216,28,-28,933,-127,42,43,-42,17917,28971,-18964,24576
505,21337,21346,27,-19,923,-255,41,45,-50,17857,28953,-18748,-32768
507,21470,21480,35,-21,928,367,41,49,-42,17869,28785,-19299,-24576
509,21605,21614,32,-19,924,79,38,43,-41,18001,28815,-19191,-24576
511,21735,21745,30,-20,929,415,41,42,-45,17869,28965,-19335,-24576
513,21869,21879,32,-21,914,255,41,40,-43,17708,28977,-18988,28672
515,22004,22013,46,-21,917,303,40,46,-49,17887,29192,-18916,24576
517,22134,22144,30,-27,909,63,46,42,-44,17953,29240,-19000,-24576
519,22278,22287,41,-23,918,-303,41,42,-45,18037,29198,-18982,-16384
521,22412,22422,20,-21,929,175,44,42,-43,17702,29174,-19119,20480
523,22542,22552,22,-26,934,-255,43,44,-44,17863,28983,-18916,20480
525,22678,22688,33,-17,930,367,48,49,-46,17851,28893,-18868,24576
527,22812,22822,26,-26,920,271,50,46,-43,17887,29013,-19167,12288
529,22946,22956,38,-21,924,-207,44,43,-43,17935,29042,-19000,-20480
531,23077,23087,31,-17,917,-63,44,48,-46,17792,28983,-19449,0
533,23211,23221,36,-20,928,399,44,44,-46,17863,29120,-19006,24576
535,23345,23355,37,-31,923,143,41,42,-45,17983,29252,-19185,28672
537,23476,23486,32,-33,926,271,41,42,-48,17792,29222,-19215,-4096
539,23610,23620,23,-19,934,-191,41,40,-46,17917,29186,-19221,-4096
541,23754,23764,25,-21,930,511,42,44,-43,17893,28803,-19311,28672
543,23884,23894,35,-19,921,31,38,40,-43,17702,28971,-19179,-24576
545,24019,24028,40,-22,929,-303,41,42,-48,17959,28971,-19299,-12288
547,24153,24163,27,-24,931,79,41,41,-44,17935,28857,-19203,-24576
549,24394,24404,36,-20,930,175,44,40,-43,18103,28971,-19269,24576
551,24528,24538,32,-26,915,31,38,41,-48,17768,28917,-19185,12288
553,24679,24689,36,-32,928,303,43,48,-45,17624,28923,-19161,-12288
555,24810,24820,34,-23,924,383,46,41,-38,17684,28965,-19323,-4096
557,24944,24954,29,-28,923,-159,48,48,-44,17576,28869,-19437,28672
559,25078,25088,32,-17,930,-239,41,46,-42,17857,28887,-19802,28672
561,25209,25219,25,-24,924,-191,33,44,-43,17792,29120,-19287,20480
563,25354,25364,39,-19,934,79,40,42,-48,17738,28851,-19395,20480
565,25488,25498,28,-24,926,255,46,44,-48,17809,29234,-19335,16384
567,25622,25632,39,-21,926,159,44,40,-43,17809,29096,-19269,-20480
569,25753,25763,32,-28,933,143,38,41,-46,17929,29042,-19514,-12288
571,25887,25897,35,-19,924,-143,40,46,-48,17762,29054,-19431,-24576
573,26021,26031,30,-15,921,447,45,44,-44,17768,29138,-19341,-16384
575,26151,26161,30,-20,921,-15,48,46,-42,17774,29001,-19754,-12288
577,26286,26295,34,-26,925,15,42,38,-50,17786,28983,-19473,28672
579,26420,26430,33,-20,928,-239,40,43,-44,17881,28995,-19341,-12288
581,26550,26560,39,-23,930,111,38,43,-45,17827,29084,-19389,4096
583,26685,26694,28,-26,926,-63,44,42,-46,17756,29007,-19407,-4096
585,26828,26838,36,-14,925,79,45,43,-44,17678,29066,-19425,8192
587,26959,26969,33,-23,928,191,43,37,-44,17678,29168,-19461,-12288
589,27093,27103,27,-28,921,-111,42,42,-46,17786,28965,-19251,-32768
591,27227,27237,32,-27,927,63,49,48,-45,17857,29150,-19305,-32768
593,27358,27368,32,-15,925,303,44,40,-50,17726,29054,-19377,-4096
595,27492,27502,35,-23,935,-223,42,36,-48,17654,28779,-18910,-28672
597,27626,27636,30,-24,922,-335,43,40,-44,17522,28863,-19083,-20480
599,27756,27766,36,-20,926,127,45,40,-49,17582,29084,-19107,-4096
601,27892,27902,39,-17,932,335,44,43,-44,17839,29066,-19125,-20480
603,28027,28036,37,-23,926,-31,45,45,-41,17768,29090,-19077,-4096
605,28157,28167,35,-21,922,415,41,41,-38,17809,29072,-19131,-4096
607,28293,28303,36,-21,928,-223,40,41,-40,17905,29096,-19185,28672
609,28436,28446,33,-19,924,-367,44,38,-44,18031,29007,-19161,-20480
611,28571,28580,40,-7,867,111,40,43,-46,17594,29252,-19215,8192
613,28701,28711,-27,-65,968,207,45,49,-51,17792,29282,-19269,-16384
615,28835,28845,2,-68,911,-303,41,40,-46,17702,29078,-19095,12288
617,28969,28979,49,-71,829,255,42,42,-44,17564,29048,-19119,4096
619,29100,29109,19,-58,920,175,50,43,-40,17863,29144,-19395,24576
621,29234,29244,36,-39,917,335,42,45,-42,17414,28881,-19538,20480
623,29396,29406,37,-17,827,383,44,41,-46,17648,29288,-19311,-12288
625,29527,29537,18,129,967,223,48,41,-56,17720,29192,-19071,-4096
627,29661,29671,32,-14,885,319,52,33,-44,17923,29222,-18634,-12288
629,29795,29805,58,-23,920,-335,35,48,-51,17570,29252,-18940,-4096
631,29935,29945,78,-112,1036,-63,53,45,-46,17720,29180,-19059,12288
633,30069,30079,28,2,948,111,46,38,-49,17708,29336,-18928,-4096
635,30203,30213,28,-6,876,319,38,44,-44,17732,29318,-19149,8192
637,30334,30344,27,-17,958,79,45,48,-48,17768,29318,-19275,16384
639,30470,30479,41,-12,983,-207,44,45,-44,17911,29432,-19664,-28672
641,30603,30613,61,19,816,-399,48,30,-51,17780,29360,-19173,-32768
643,30733,30743,0,-67,942,-303,44,43,-43,17786,29216,-19311,-16384
645,30869,30879,60,-63,967,111,38,41,-44,17827,29420,-19191,-28672
647,31003,31013,38,-13,877,-31,48,42,-45,17965,29372,-19311,16384
649,31138,31147,43,14,965,15,37,42,-50,17917,29240,-19425,12288
651,31268,31278,5,-36,843,-31,44,35,-45,18049,29539,-18958,-8192
653,31412,31422,30,-6,957,-95,44,52,-48,17989,29234,-19209,-16384
655,31546,31556,64,-172,865,335,34,42,-51,18055,29126,-18994,-8192
657,31677,31687,4,-13,862,623,48,41,-53,18193,29557,-18874,-24576
659,31811,31821,30,-10,910,399,44,40,-46,18348,29420,-19065,-16384
661,31945,31955,34,-16,915,-159,44,43,-43,18528,29515,-18856,-16384
663,32076,32086,34,-13,931,-671,41,46,-44,18085,29318,-18712,-8192
665,32210,32219,32,-17,925,0,42,44,-46,18390,29258,-18862,0
667,32344,32354,35,-21,920,-207,43,42,-48,18181,29432,-19437,4096
669,32474,32484,38,-18,921,-47,48,46,-49,18354,29372,-19161,12288
671,32609,32619,43,-27,919,559,41,42,-48,18270,29294,-19119,12288
673,32743,32753,34,-18,923,-111,45,46,-49,18420,29611,-18964,16384
675,32883,32893,35,-19,921,63,45,38,-43,18330,29222,-19054,-4096
677,33017,33027,36,-23,916,367,41,37,-45,18312,29450,-19101,-32768
679,33151,33161,36,-23,936,-47,43,44,-44,18205,29426,-19293,4096
681,33282,33291,30,-17,930,63,41,37,-46,18444,29366,-19227,-4096
683,33417,33427,26,-21,930,-159,44,38,-43,18390,29593,-19036,8192
685,33552,33561,31,-20,925,335,45,44,-43,18264,29485,-19275,16384
687,33685,33695,32,-16,920,-367,46,46,-42,18229,29420,-18844,16384
689,33816,33826,32,-19,925,-271,42,44,-42,18366,29569,-18898,-4096
691,33974,33984,31,-30,916,159,44,45,-50,18438,29659,-18940,-28672
693,34108,34118,38,-19,930,-111,43,37,-44,18253,29503,-19143,-32768
695,34239,34249,35,-18,924,31,50,43,-44,18534,29563,-19371,-28672
