count,tInitial,tFinal,accel_x,accel_y,accel_z,accel_high,gyro_x,gyro_y,gyro_z,mag_x,mag_y,mag_z,temp,status
0,891,901,2,11,908,335,193,-817,109,377,-10081,-14474,0,0
1,903,912,0,5,903,527,196,-818,109,233,-9949,-14534,-16384,0
3,1022,1032,2,6,904,79,193,-814,109,107,-9829,-14857,-32768,0
4,1034,1044,-4,-2,906,15,201,-817,104,317,-10141,-14749,16384,0
6,1156,1166,2,8,909,623,202,-820,107,113,-9955,-14809,0,0
7,1168,1178,1,5,906,447,201,-818,110,269,-9859,-14851,0,0
9,1290,1300,2,15,913,47,197,-816,109,257,-9770,-14713,-32768,0
10,1302,1312,0,5,914,207,201,-816,109,281,-9859,-14725,0,0
12,1424,1434,174,9,918,31,200,-820,108,-17,-9985,-14665,-32768,0
13,1436,1445,0,15,908,127,195,-822,108,191,-9979,-14779,0,0
15,1555,1564,1,9,916,-79,196,-821,110,269,-10069,-14617,16384,0
16,1567,1576,2,10,911,-47,195,-818,110,233,-9925,-14534,16384,0
18,1696,1706,2,8,920,511,200,-820,114,281,-10123,-14474,-32768,0
19,1708,1718,-5,9,917,335,194,-817,107,197,-10009,-14611,0,0
21,1830,1840,2,8,917,79,196,-814,112,317,-10141,-14737,-32768,0
22,1842,1851,2,6,913,191,200,-815,108,191,-10015,-14504,16384,0
24,1963,1973,-2,1,917,255,196,-816,112,215,-9907,-14959,0,0
25,1975,1985,0,8,921,271,200,-816,110,149,-10123,-14983,-32768,0
27,2094,2104,1,14,917,319,201,-818,106,5,-10045,-14701,-16384,0
28,2106,2116,-1,8,921,367,199,-821,112,149,-9979,-14683,-32768,0
30,2228,2237,6,2,915,303,197,-825,106,-35,-9901,-14617,-32768,0
31,2239,2249,-5,3,924,447,200,-817,109,221,-10123,-14582,0,0
33,2361,2371,2,13,920,47,199,-818,112,-65,-10069,-14671,-16384,0
34,2373,2383,1,5,926,63,202,-818,112,167,-10177,-14821,16384,0
36,2502,2512,3,4,923,543,38,91,-93,149,-10027,-14528,0,0
37,2514,2524,-1,6,916,15,26,138,-89,203,-10105,-14444,16384,0
39,2633,2643,0,15,922,143,-18,308,-81,-137,-10081,-14881,-32768,0
40,2645,2655,1,10,915,271,-17,309,-81,-65,-10003,-14809,0,0
42,2767,2776,2,10,916,63,-14,267,-70,53,-10063,-14480,-16384,0
43,2779,2788,2,15,926,415,-10,261,-64,215,-10183,-14923,-16384,0
45,2901,2910,-2,10,927,287,-3,193,-37,95,-10045,-15126,16384,0
46,2912,2922,-2,12,927,127,2,194,-32,5,-10087,-15066,-32768,0
48,3034,3044,-2,7,924,159,14,114,-21,215,-10189,-14821,16384,0
49,3046,3056,0,9,919,399,19,112,-20,17,-10237,-14582,16384,0
51,3172,3182,1,8,932,447,33,49,-28,17,-9985,-14647,-16384,0
52,3187,3197,0,4,922,143,38,35,-33,0,-9955,-14546,16384,0
54,3306,3316,4,6,925,0,38,36,-35,-41,-9907,-14659,-16384,0
55,3318,3328,-2,4,921,255,38,32,-38,11,-10033,-14576,-32768,0
57,3440,3450,-6,13,920,623,37,32,-36,179,-9895,-14701,-32768,0
58,3452,3461,6,6,932,15,35,33,-44,-107,-9764,-14617,16384,0
60,3573,3583,0,17,922,415,40,36,-34,-83,-9943,-14510,-32768,0
61,3585,3595,-4,0,922,591,38,35,-37,-251,-10141,-14588,16384,0
63,3704,3714,-171,5,916,591,37,30,-42,-41,-9949,-14390,-32768,0
64,3719,3728,0,6,922,223,36,34,-34,29,-9985,-14354,-32768,0
66,3838,3848,-4,6,925,-31,37,35,-44,-53,-10105,-14576,0,0
67,3850,3859,0,10,926,287,40,35,-38,101,-9979,-14605,16384,0
69,3979,3989,1,12,920,191,34,32,-40,-143,-9997,-14180,16384,0
70,3991,4001,2,11,916,463,36,35,-38,113,-10039,-14378,-16384,0
72,4113,4123,2,8,922,511,41,29,-40,35,-9949,-14755,0,0
73,4125,4135,-4,10,924,479,37,30,-36,71,-9991,-14426,0,0
75,4247,4257,3,11,933,687,33,33,-41,-119,-9859,-14396,0,0
76,4259,4268,2,13,926,239,32,32,-42,-17,-9913,-14683,0,0
78,4378,4387,2,0,926,511,35,33,-37,-1508,-9889,-14414,-32768,0
79,4390,4399,2,10,922,111,41,28,-40,41,-9907,-14486,16384,0
81,4511,4521,1,4,928,-287,36,37,-38,-197,-9919,-14570,0,0
82,4523,4533,-3,14,924,271,40,24,-38,-107,-9865,-14629,0,0
84,4653,4663,2,17,924,255,34,25,-40,119,-9817,-14845,0,0
85,4665,4674,5,7,935,207,34,36,-41,11,-9871,-14432,16384,0
87,4787,4796,-4,13,935,655,38,35,-37,101,-9674,-14576,-16384,0
88,4799,4808,2,6,923,63,37,29,-45,89,-9704,-14833,0,0
90,4918,4927,0,8,920,127,34,35,-40,29,-9644,-14336,16384,0
91,4929,4939,4,3,920,271,36,29,-40,23,-9829,-14306,0,0
93,5051,5061,-3,7,923,319,32,32,-40,221,-9770,-14510,16384,0
94,5063,5073,3,11,929,191,40,30,-37,215,-9859,-14671,16384,0
96,5185,5195,-2,10,923,-111,34,32,-41,47,-9871,-14863,-32768,0
97,5197,5207,0,13,923,255,37,29,-41,53,-9734,-14875,16384,0
99,5321,5331,2,6,934,175,35,32,-43,203,-9782,-14779,-16384,0
100,5333,5343,-5,4,928,415,34,26,-40,161,-9895,-14767,-32768,0
102,5461,5471,2,9,928,0,36,36,-41,83,-9925,-15060,-32768,0
103,5473,5482,3,8,928,479,41,35,-38,203,-9805,-14779,16384,0
105,5595,5604,-3,8,927,47,38,32,-37,41,-9907,-14803,-32768,0
106,5607,5616,-1,15,926,351,37,36,-40,11,-9961,-15060,-16384,0
108,5729,5738,-175,9,922,-111,32,32,-38,107,-9871,-14647,0,0
109,5740,5750,-1,0,922,111,41,35,-37,47,-9889,-14647,0,0
111,5862,5872,-2,8,918,223,37,30,-41,275,-9722,-14576,16384,0
112,5874,5884,1,11,929,655,32,30,-34,101,-9752,-14582,16384,0
114,5993,6003,2,8,926,255,38,33,-40,-53,-9752,-14875,-32768,0
115,6005,6015,2,0,922,0,35,36,-42,-203,-9817,-14767,0,0
117,6135,6145,0,2,925,303,40,33,-43,-101,-9919,-14869,0,0
118,6147,6156,2,12,930,559,37,32,-41,-179,-9985,-14647,-16384,0
120,6269,6278,2,6,928,335,36,35,-42,71,-9889,-15186,16384,0
121,6280,6290,6,5,933,-223,30,32,-38,-221,-9859,-14444,-32768,0
123,6402,6412,2,7,927,767,38,30,-41,-215,-9680,-14677,-16384,0
124,6414,6424,2,9,924,335,41,32,-36,-101,-9716,-14276,-32768,0
126,6533,6543,-8,17,924,351,35,35,-38,-59,-9829,-14689,-32768,0
127,6545,6555,3,11,924,47,36,32,-38,-41,-9955,-14767,0,0
129,6667,6677,2,13,933,383,35,34,-44,29,-9811,-14773,0,0
130,6679,6688,2,15,920,431,36,35,-37,167,-9937,-14683,0,0
132,6801,6810,-2,13,924,703,30,35,-35,257,-9973,-14695,0,0
133,6812,6822,0,7,929,175,36,38,-37,107,-9979,-14576,16384,0
135,6952,6961,1,11,922,399,41,35,-38,-125,-9919,-14564,0,0
136,6963,6973,0,12,931,671,34,37,-40,-155,-9997,-14881,0,0
138,7083,7092,3,14,927,31,43,33,-41,-41,-9889,-14522,-16384,0
139,7097,7107,-6,4,921,447,36,33,-38,-95,-10039,-14677,16384,0
141,7217,7226,5,10,926,335,42,32,-35,77,-9967,-14498,0,0
142,7228,7238,2,6,924,-175,37,30,-38,-131,-9937,-15096,0,0
144,7350,7360,3,6,925,479,36,28,-41,125,-10069,-14402,-16384,0
145,7362,7372,4,9,923,271,40,32,-41,191,-9823,-14570,-16384,0
147,7484,7494,2,3,929,-239,35,32,-41,89,-9776,-14408,16384,0
148,7496,7506,-1,8,932,575,37,32,-36,95,-9638,-14306,16384,0
150,7615,7625,1,13,928,543,35,32,-38,143,-10051,-14522,-16384,0
151,7632,7642,-1,13,932,175,33,37,-38,167,-10033,-14390,0,0
153,7752,7761,1,7,933,143,44,32,-38,-119,-9943,-14462,0,0
154,7764,7773,2,16,927,0,36,30,-40,-89,-9805,-14516,16384,0
156,7885,7895,3,4,933,335,37,34,-40,-197,-9919,-14312,-32768,0
157,7897,7907,2,4,928,399,37,28,-38,-155,-9782,-14474,0,0
159,8019,8029,0,13,924,287,34,36,-35,-5,-9955,-14689,0,0
160,8031,8041,0,4,924,463,38,29,-38,197,-9961,-14869,-16384,0
162,8153,8163,-1,1,919,335,36,33,-32,-89,-9782,-14641,16384,0
163,8165,8175,4,8,936,511,36,32,-41,-89,-9728,-14683,16384,0
165,8292,8302,5,8,932,191,35,34,-40,-389,-9668,-14582,16384,0
166,8304,8313,-9,8,925,63,40,35,-42,-275,-9674,-14923,0,0
168,8433,8443,174,3,928,-63,36,33,-48,-173,-9692,-14971,-16384,0
169,8445,8455,-1,13,924,-335,37,35,-35,-197,-9632,-14959,16384,0
171,8567,8577,0,8,920,-63,41,34,-42,-287,-9829,-15007,-32768,0
172,8579,8589,1,8,938,463,37,34,-41,0,-9835,-14947,0,0
174,8701,8711,0,4,929,207,42,30,-41,-173,-9955,-14773,-32768,0
175,8713,8723,2,8,926,335,34,32,-36,-323,-9871,-14809,16384,0
177,8832,8842,3,8,941,63,36,33,-37,-239,-9913,-14827,16384,0
178,8844,8854,3,6,925,175,34,30,-41,-197,-9835,-14959,-32768,0
180,8966,8976,3,6,927,191,38,33,-35,-353,-9889,-14929,16384,0
181,8978,8988,2,10,930,655,35,32,-35,-281,-10063,-14827,0,0
183,9100,9109,2,11,928,655,43,32,-37,-299,-10027,-14911,0,0
184,9111,9121,0,16,934,287,36,29,-36,-149,-9859,-14917,0,0
186,9241,9250,3,5,939,351,38,33,-40,101,-10033,-14761,0,0
187,9253,9262,-2,8,927,-47,44,29,-37,-89,-9937,-14611,0,0
189,9371,9381,2,12,927,335,38,33,-41,143,-9788,-14977,0,0
190,9383,9392,-2,13,923,559,41,34,-42,-95,-9991,-14899,0,0
192,9504,9514,0,2,933,351,36,30,-36,35,-9853,-14821,16384,0
193,9516,9526,-3,6,932,63,41,33,-36,-53,-9889,-14797,16384,0
195,9638,9647,0,0,925,-111,38,29,-38,-5,-9662,-14312,16384,0
196,9650,9659,-8,4,926,-111,37,30,-38,119,-9716,-14450,-32768,0
198,9773,9783,2,12,923,415,36,33,-41,0,-9853,-14468,-32768,0
199,9785,9794,1,12,924,47,38,34,-38,11,-9829,-14420,0,0
201,9911,9921,2,12,929,0,40,35,-37,-173,-9841,-14905,-16384,0
202,9923,9932,3,4,926,-63,38,29,-40,-251,-9614,-14845,-32768,0
204,10045,10054,2,10,926,15,36,34,-38,113,-9710,-15031,16384,0
205,10056,10066,-3,4,928,335,36,30,-37,-53,-9776,-14761,-32768,0
207,10178,10187,2,13,927,383,36,38,-35,-35,-9782,-15060,0,0
208,10190,10199,-4,19,921,287,42,35,-40,-29,-9985,-14827,-16384,0
210,10311,10321,0,10,924,575,41,36,-38,-47,-10111,-14785,16384,0
211,10323,10333,4,5,935,399,35,26,-37,23,-9949,-14719,16384,0
213,10441,10451,2,6,932,527,37,36,-35,-179,-9734,-14635,-16384,0
214,10456,10466,1,13,912,-191,35,33,-38,-149,-9776,-14731,16384,0
216,10575,10585,-1,2,926,223,40,32,-42,-251,-9901,-14629,0,0
217,10587,10596,4,10,930,143,40,32,-37,-137,-9877,-14665,0,0
219,10716,10725,0,174,929,127,44,29,-41,-101,-9919,-15138,16384,0
220,10727,10737,2,8,928,-207,36,30,-38,-71,-9949,-15031,16384,0
222,10849,10859,2,15,930,463,37,35,-41,-89,-9871,-14653,-16384,0
223,10861,10871,0,10,928,335,33,35,-42,-113,-9823,-14971,16384,0
225,10979,10989,3,10,926,175,30,28,-35,-35,-9829,-14959,16384,0
226,10994,11004,0,8,928,-255,46,33,-41,35,-10075,-15216,-32768,0
228,11113,11123,4,2,929,-31,38,34,-36,-35,-9788,-15102,-16384,0
229,11125,11134,2,11,924,79,42,40,-38,-47,-9889,-15192,0,0
231,11246,11256,4,10,930,319,34,30,-35,-131,-9782,-14899,-32768,0
232,11258,11268,0,8,920,47,37,26,-38,-65,-9692,-14785,0,0
234,11387,11397,1,12,929,607,37,34,-40,101,-9817,-15102,16384,0
235,11399,11409,2,17,930,47,38,27,-40,-143,-9925,-15054,0,0
237,11521,11531,-1,7,928,111,36,33,-37,-131,-9668,-15096,0,0
238,11533,11542,2,2,918,-127,35,36,-40,-11,-9889,-14809,16384,0
240,11652,11661,-2,6,924,143,36,32,-38,-23,-9961,-15031,-16384,0
241,11663,11673,2,1,927,367,40,33,-34,35,-9919,-15120,-32768,0
243,11785,11795,2,10,928,319,37,30,-40,65,-9901,-14965,-32768,0
244,11797,11806,2,17,920,719,36,34,-36,-65,-9746,-14743,16384,0
246,11918,11928,169,5,933,-319,32,33,-37,53,-9835,-14815,0,0
247,11930,11940,-5,10,928,543,32,30,-40,-101,-9746,-14683,0,0
249,12052,12061,-1,4,926,271,35,30,-36,-1454,-9919,-15043,0,0
250,12063,12073,0,15,924,0,36,33,-35,-77,-9907,-15120,16384,0
252,12190,12200,2,15,926,271,41,36,-41,137,-9799,-14671,0,0
253,12202,12211,0,15,928,-255,32,38,-38,-23,-9746,-15072,0,0
255,12323,12333,-2,13,932,591,35,32,-40,149,-9650,-14851,0,0
256,12335,12345,-3,11,929,591,29,35,-40,197,-9698,-14450,16384,0
258,12457,12467,0,10,922,31,34,34,-40,65,-9853,-14617,16384,0
259,12469,12479,0,4,929,159,40,33,-40,23,-9865,-14923,16384,0
261,12591,12600,-4,-2,930,319,35,34,-42,113,-9764,-14701,-32768,0
262,12602,12612,-2,0,922,255,38,33,-38,5,-9770,-14911,0,0
264,12721,12731,-1,6,919,351,33,32,-37,-179,-9704,-14671,0,0
265,12733,12743,1,2,924,-63,35,28,-38,167,-9746,-14941,-32768,0
267,12863,12872,-6,3,933,447,36,35,-35,0,-10129,-14857,16384,0
268,12874,12884,0,5,926,527,33,28,-42,59,-10033,-14857,-32768,0
270,12996,13006,1,1,937,287,30,28,-38,5,-9943,-14719,-16384,0
271,13008,13018,1,11,932,143,35,38,-40,77,-9877,-15120,-32768,0
273,13130,13139,1,10,929,95,30,38,-43,-101,-9853,-14761,16384,0
274,13141,13151,-5,15,939,95,32,35,-37,35,-9644,-14941,0,0
276,13283,13293,-6,12,914,543,35,33,-38,-227,-9566,-15054,0,0
277,13295,13305,-1,4,923,79,36,29,-37,-281,-9656,-15090,0,0
279,13416,13426,1,11,925,79,40,36,-35,-113,-9811,-14965,16384,0
280,13428,13438,0,6,919,-63,35,32,-40,-29,-10021,-15037,16384,0
282,13549,13559,4,8,925,399,37,32,-41,-185,-9913,-14869,16384,0
283,13561,13571,-1,10,933,287,37,38,-41,-137,-9799,-14905,0,0
285,13689,13699,174,5,929,351,34,32,-38,-269,-9835,-14863,16384,0
286,13701,13711,2,2,926,751,40,33,-35,-131,-9746,-15019,0,0
288,13819,13829,-3,8,922,-47,37,30,-43,-161,-9554,-14779,16384,0
289,13833,13843,-1,1,926,287,35,34,-34,29,-9811,-15096,0,0
291,13952,13962,-2,13,930,703,41,30,-43,-23,-9650,-14785,-16384,0
292,13964,13973,0,3,933,239,38,30,-41,-1514,-9578,-15013,-32768,0
294,14085,14094,2,8,932,143,36,26,-40,-137,-9494,-14528,16384,0
295,14096,14106,0,5,923,0,36,29,-41,-65,-9458,-14917,16384,0
297,14217,14227,8,11,927,287,36,30,-38,143,-9782,-14833,16384,0
298,14229,14239,2,13,930,207,34,30,-37,-161,-9716,-14965,-32768,0
300,14347,14357,2,13,918,-207,36,30,-41,29,-9632,-14504,-16384,0
301,14369,14379,0,6,926,111,36,32,-40,-383,-9662,-14456,16384,0
303,14487,14497,-2,8,933,-143,41,35,-36,-263,-9805,-14737,16384,0
304,14499,14509,6,4,931,447,45,29,-38,-137,-9764,-15066,0,0
306,14620,14630,-10,9,922,271,35,32,-43,-251,-9859,-14665,0,0
307,14632,14641,-17,10,926,191,38,29,-42,-275,-9776,-14755,-16384,0
309,14752,14762,0,1,928,31,36,30,-40,-179,-9889,-14875,16384,0
310,14764,14774,-1,3,940,575,41,28,-36,-293,-9817,-14851,-16384,0
312,14885,14895,-6,21,931,79,35,30,-35,-287,-9710,-14665,0,0
313,14897,14907,1,16,916,143,34,34,-38,-257,-9674,-14695,-16384,0
315,15015,15025,-169,0,922,127,42,36,-41,-59,-9650,-15054,-16384,0
316,15027,15037,2,4,934,31,37,36,-43,-305,-9764,-15019,-32768,0
318,15155,15165,-17,13,921,319,33,28,-36,-143,-9877,-14731,16384,0
319,15167,15177,-11,19,935,-159,40,33,-37,-125,-9997,-14905,0,0
321,15288,15298,-10,8,922,351,36,29,-41,-89,-9889,-15013,16384,0
322,15300,15309,-8,8,925,-127,29,30,-41,-191,-9883,-14755,-32768,0
324,15421,15431,-2,13,924,207,38,27,-42,-17,-9817,-14629,-16384,0
325,15433,15442,-2,13,932,-47,41,33,-40,-173,-9788,-14779,16384,0
327,15551,15561,4,3,926,831,36,38,-35,-197,-9799,-14923,-16384,0
328,15563,15572,1,6,928,335,37,33,-44,-53,-9650,-14647,-16384,0
330,15684,15694,3,21,917,0,44,34,-36,-257,-9602,-14923,-16384,0
331,15696,15705,-2,13,928,-207,33,32,-41,-209,-9722,-15013,-32768,0
333,15817,15826,2,8,930,-239,38,29,-40,-293,-9758,-15126,-32768,0
334,15828,15838,6,3,923,31,33,33,-42,-251,-9710,-14839,0,0
336,15961,15971,-6,11,926,287,36,32,-40,5,-9817,-14653,16384,0
337,15973,15983,0,8,924,0,38,36,-41,-179,-9877,-15013,16384,0
339,16091,16101,0,14,917,255,32,30,-37,-215,-9680,-14905,0,0
340,16103,16113,-6,6,928,591,37,30,-34,0,-9704,-14911,-32768,0
342,16224,16234,-1,5,935,383,36,35,-42,-191,-9805,-14947,16384,0
343,16236,16246,2,9,931,143,30,32,-41,-233,-9817,-14827,-32768,0
345,16357,16367,-2,15,930,351,37,30,-38,155,-9662,-14713,16384,0
346,16369,16379,-10,4,927,399,35,29,-41,377,-9668,-14905,-32768,0
348,16490,16500,-6,6,930,207,36,30,-40,-101,-9530,-14977,-32768,0
349,16502,16512,2,4,928,687,40,30,-42,-107,-9464,-15054,16384,0
351,16628,16637,2,3,922,127,40,26,-37,-113,-9608,-14941,-32768,0
352,16639,16649,2,13,928,239,37,32,-40,-173,-9758,-14611,16384,0
354,16761,16771,3,2,922,95,42,25,-43,-95,-9877,-14917,16384,0
355,16773,16782,-2,13,932,15,36,34,-38,-95,-9794,-14809,0,0
357,16894,16904,-172,13,942,543,33,32,-40,-179,-9680,-15096,-32768,0
358,16906,16915,0,9,913,143,40,32,-38,-173,-9626,-14773,-16384,0
360,17027,17037,3,10,928,351,34,33,-37,-215,-9578,-15138,16384,0
361,17039,17048,-172,13,925,191,36,27,-38,-137,-9740,-14827,16384,0
363,17157,17167,169,10,931,255,38,27,-40,-179,-9770,-14857,0,0
364,17172,17181,5,0,930,-63,40,26,-36,-77,-9668,-15019,0,0
366,17290,17300,2,10,930,495,33,30,-36,65,-9829,-15108,-32768,0
367,17302,17312,-2,10,931,399,36,30,-36,23,-9764,-15084,0,0
369,17430,17440,3,11,921,319,33,33,-41,-227,-9895,-14611,-32768,0
370,17442,17452,-2,7,926,655,33,30,-48,-41,-9847,-15001,16384,0
372,17564,17574,0,3,930,-143,36,32,-36,5,-9895,-14917,0,0
373,17576,17585,0,13,921,527,34,33,-41,-161,-9889,-14983,16384,0
375,17697,17707,4,11,920,527,38,24,-42,-89,-9638,-14959,-16384,0
376,17712,17721,-4,10,939,223,37,28,-41,-53,-9674,-14965,0,0
378,17830,17840,3,15,923,-431,37,32,-42,101,-9961,-14749,-16384,0
379,17842,17852,-8,8,927,671,37,30,-41,-47,-9925,-14839,0,0
381,17963,17973,-4,10,922,559,36,32,-37,-209,-9907,-14965,16384,0
382,17975,17985,-1,4,938,479,41,27,-36,-281,-9764,-14713,16384,0
384,18104,18114,5,17,933,591,37,34,-36,-221,-9997,-14869,0,0
385,18116,18126,-5,6,925,575,34,26,-46,-311,-9985,-14881,0,0
387,18238,18247,3,2,926,79,40,34,-45,-47,-9943,-15120,-16384,0
388,18250,18259,4,12,926,399,35,30,-43,-77,-9949,-15019,0,0
390,18368,18378,-4,7,928,63,36,28,-43,-173,-9931,-15031,-32768,0
391,18380,18390,2,13,927,-95,34,30,-42,-311,-9686,-14815,0,0
393,18501,18511,-1,8,927,559,30,29,-40,-281,-9895,-14941,0,0
394,18513,18523,2,10,932,175,36,29,-40,-341,-9847,-15013,16384,0
396,18635,18644,1,3,930,127,40,27,-33,-53,-9895,-14893,0,0
397,18647,18656,2,10,932,191,41,35,-41,-185,-9835,-14582,16384,0
399,18768,18778,-2,10,920,63,30,32,-40,-143,-9805,-14953,-16384,0
400,18780,18790,4,15,926,0,40,33,-38,-311,-9722,-14761,0,0
402,18907,18916,5,6,929,351,35,27,-40,-197,-9949,-15019,16384,0
403,18918,18928,-5,7,924,-47,36,37,-36,-77,-9913,-15037,16384,0
405,19040,19050,0,19,932,127,41,25,-44,-281,-9859,-14689,-32768,0
406,19052,19061,-4,8,913,335,43,29,-42,-203,-9907,-14683,-32768,0
408,19174,19183,0,8,924,-415,36,33,-36,-179,-9674,-14743,-32768,0
409,19185,19195,-1,9,926,127,29,30,-40,-41,-9782,-14749,0,0
411,19307,19317,0,10,922,15,38,27,-44,-269,-9889,-14815,-32768,0
412,19319,19329,0,6,930,-255,35,32,-42,-245,-10003,-14713,0,0
414,19438,19448,2,4,930,223,37,32,-40,-281,-9877,-14749,16384,0
415,19450,19460,4,7,918,367,37,29,-40,-83,-9973,-14504,-32768,0
417,19579,19589,0,4,933,-47,29,30,-41,-215,-9901,-14671,-32768,0
418,19591,19601,3,15,921,415,37,35,-40,-83,-9764,-14773,16384,0
420,19713,19723,-6,13,911,975,36,28,-41,-269,-9859,-14641,0,0
421,19725,19734,-1,15,928,511,36,29,-37,-203,-9961,-14671,0,0
423,19847,19856,-2,18,928,639,40,32,-41,149,-9883,-14779,-16384,0
424,19858,19868,0,9,926,-111,33,33,-37,-119,-9895,-14911,16384,0
426,19977,19987,0,17,925,79,35,28,-43,-101,-9608,-14779,0,0
427,19989,19999,2,7,935,-63,35,32,-37,-35,-9794,-14749,0,0
429,20111,20121,1,3,924,0,35,33,-37,-17,-9776,-14653,0,0
430,20123,20133,2,14,929,271,34,29,-37,-173,-9901,-14695,16384,0
432,20245,20255,0,13,923,0,38,33,-34,-191,-9853,-14635,16384,0
433,20257,20267,0,15,934,511,34,30,-37,-203,-9961,-14438,-32768,0
435,20386,20396,1,12,924,527,36,33,-38,-377,-9967,-14929,16384,0
436,20398,20408,2,9,928,95,34,29,-37,-323,-10129,-14779,-32768,0
438,20517,20527,0,13,922,319,37,33,-40,-544,-9877,-14923,-16384,0
439,20532,20541,-2,8,924,0,36,32,-36,-341,-10003,-14965,-32768,0
441,20651,20660,1,11,930,319,38,32,-36,-341,-9913,-14540,16384,0
442,20663,20672,4,1,926,-303,35,28,-40,-329,-9764,-14965,-32768,0
444,20784,20794,0,5,930,287,40,34,-37,-197,-9829,-14833,-32768,0
445,20796,20806,0,8,925,383,43,32,-41,-167,-10009,-15001,0,0
447,20918,20928,0,6,933,255,38,34,-42,-347,-9799,-14767,-32768,0
448,20930,20940,1,8,933,383,32,34,-35,-263,-9770,-14737,-32768,0
450,21049,21059,-7,11,926,191,36,35,-38,-317,-9770,-14839,-32768,0
451,21071,21081,2,9,924,255,37,29,-43,-263,-9805,-14923,-32768,0
453,21191,21200,4,14,924,0,42,37,-37,-113,-9973,-14629,-16384,0
454,21202,21212,1,13,922,207,43,29,-37,-89,-9961,-14755,0,0
456,21324,21334,-1,7,933,447,35,35,-36,-185,-9764,-15126,-32768,0
457,21336,21346,0,12,933,303,38,33,-37,-203,-9770,-15096,-32768,0
459,21458,21468,-3,2,927,-207,37,34,-42,-466,-9740,-14558,-32768,0
460,21470,21480,2,10,931,575,38,32,-35,-448,-9722,-14653,0,0
462,21592,21602,-2,4,930,191,38,36,-43,-257,-9841,-14899,-32768,0
463,21604,21614,2,7,928,-31,37,33,-40,-191,-9776,-14833,-32768,0
465,21723,21733,2,8,926,175,38,35,-38,-149,-9835,-14809,-32768,0
466,21735,21744,0,6,928,-31,36,36,-37,-197,-9794,-14845,16384,0
468,21864,21874,1,6,925,271,37,33,-37,-353,-9889,-14851,-16384,0
469,21876,21886,-2,11,925,127,35,32,-37,-215,-9823,-14570,16384,0
471,21998,22008,-1,12,928,207,36,30,-40,-365,-9740,-14797,-16384,0
472,22010,22019,1,10,928,63,40,33,-41,-395,-9835,-14845,16384,0
474,22134,22144,0,6,931,-79,38,30,-36,-323,-9746,-14905,16384,0
475,22146,22156,-4,8,926,47,41,34,-41,-71,-9805,-14719,16384,0
477,22265,22275,2,6,928,-367,36,28,-40,-257,-9829,-14779,-32768,0
478,22277,22286,2,11,922,223,37,30,-33,-251,-9752,-14743,-32768,0
480,22399,22408,0,5,923,287,30,30,-35,-293,-9710,-14534,16384,0
481,22410,22420,-6,4,926,-223,37,35,-37,-233,-9686,-14809,-32768,0
483,22533,22542,-4,5,913,447,41,29,-41,-245,-9758,-14815,-32768,0
484,22544,22554,-1,9,927,207,38,34,-35,-263,-9788,-14911,0,0
486,22678,22688,0,10,926,383,38,26,-41,137,-9788,-14887,0,0
487,22690,22700,-6,15,924,159,37,34,-40,-65,-9919,-14809,0,0
489,22809,22819,0,4,920,303,38,33,-36,-221,-9662,-14540,-32768,0
490,22821,22831,0,4,918,-415,41,27,-35,-281,-9871,-14689,0,0
492,22943,22953,0,4,925,47,32,33,-42,-245,-9889,-14923,16384,0
493,22955,22965,9,7,937,623,38,35,-38,-221,-9961,-15049,16384,0
495,23077,23087,0,6,926,303,35,30,-36,-215,-9704,-14671,-32768,0
496,23089,23099,0,15,928,47,33,30,-37,-257,-9770,-14707,16384,0
498,23211,23220,-4,4,921,239,44,30,-42,-251,-9859,-14833,0,0
499,23223,23232,1,15,933,111,41,35,-33,-179,-9752,-14881,16384,0
501,23349,23359,2,6,926,223,36,29,-41,-341,-9794,-14761,16384,0
502,23361,23371,1,8,931,191,38,30,-37,-293,-9776,-14785,16384,0
504,23483,23493,2,7,931,-175,36,28,-42,-371,-9704,-14653,-32768,0
505,23495,23505,-2,7,925,351,35,29,-43,-335,-9752,-14875,16384,0
507,23617,23627,0,4,930,575,36,33,-40,-245,-9871,-14809,0,0
508,23629,23638,2,10,920,495,38,30,-44,-161,-9835,-14935,0,0
510,23751,23760,2,13,920,63,35,32,-42,-329,-9734,-15007,16384,0
511,23762,23772,0,8,922,63,38,32,-34,-329,-9668,-15025,0,0
513,23881,23891,-3,4,934,703,38,33,-42,-407,-9626,-14857,-32768,0
514,23896,23906,-174,10,933,415,36,35,-38,-185,-9728,-14863,-32768,0
516,24015,24025,2,1,922,351,33,34,-42,-478,-9794,-15132,0,0
517,24027,24037,169,10,920,431,32,26,-40,-281,-9865,-15108,16384,0
519,24157,24166,2,7,926,-175,43,28,-37,-377,-9776,-15013,16384,0
520,24168,24178,-2,6,936,527,35,32,-43,-311,-9794,-15054,-32768,0
522,24290,24300,2,11,922,-111,38,32,-37,-568,-9752,-14767,-32768,0
523,24302,24312,-4,6,929,671,42,30,-36,-466,-9740,-14989,16384,0
525,24421,24431,1,4,927,415,36,30,-44,-197,-9584,-15120,0,0
526,24436,24446,2,6,930,575,40,33,-42,-119,-9584,-15031,0,0
528,24555,24565,0,17,939,367,41,28,-38,-460,-9638,-14833,16384,0
529,24567,24577,0,3,933,639,37,34,-43,-413,-9728,-15186,-32768,0
531,24689,24699,0,5,917,175,36,30,-43,-113,-9776,-15240,-32768,0
532,24701,24710,0,8,924,655,40,35,-36,41,-9973,-15282,-32768,0
534,24830,24840,1,14,928,271,35,27,-38,-95,-9871,-15126,16384,0
535,24842,24852,-10,8,930,287,36,26,-42,-227,-9931,-15270,16384,0
537,24964,24974,2,10,923,511,36,29,-38,-65,-9644,-15031,-16384,0
538,24976,24986,2,8,923,0,35,33,-41,11,-9782,-15216,16384,0
540,25095,25105,2,8,935,15,38,32,-38,-209,-9811,-14845,-32768,0
541,25107,25116,0,7,930,479,41,32,-38,-460,-9644,-15007,0,0
543,25229,25238,8,6,922,-175,36,29,-38,-281,-9686,-14611,-32768,0
544,25240,25250,0,3,928,127,38,25,-40,-131,-9776,-14755,0,0
546,25362,25372,0,0,922,127,36,30,-43,-293,-9692,-14701,-32768,0
547,25374,25384,2,13,924,0,41,30,-42,-269,-9770,-14516,0,0
549,25496,25506,-3,15,925,303,40,37,-44,-137,-9817,-14923,-32768,0
550,25508,25518,-175,5,921,271,35,28,-38,-65,-9811,-14983,16384,0
552,25635,25644,-1,9,935,79,35,27,-40,-287,-9668,-14809,0,0
553,25646,25656,2,6,926,367,36,27,-36,17,-9746,-14779,16384,0
555,25768,25778,0,15,929,655,36,28,-41,35,-9853,-14923,16384,0
556,25780,25790,-4,7,934,271,42,34,-36,-65,-9758,-15001,0,0
558,25902,25912,-2,7,920,95,37,32,-36,-215,-9847,-14623,-32768,0
559,25914,25924,4,14,922,367,34,27,-36,-155,-9770,-14797,16384,0
561,26036,26046,1,15,928,399,34,29,-41,-143,-9590,-14737,-32768,0
562,26048,26057,1,10,929,207,34,25,-40,-353,-9626,-14779,-32768,0
564,26167,26176,174,7,927,111,35,27,-43,5,-9740,-14635,16384,0
565,26179,26188,-171,8,939,0,29,30,-44,-95,-9776,-14941,0,0
567,26308,26318,2,5,924,-79,36,28,-35,5,-9536,-14863,0,0
568,26320,26330,171,10,932,271,34,30,-38,113,-9626,-14977,0,0
570,26442,26452,0,11,927,639,34,26,-38,-173,-9752,-14887,-32768,0
571,26454,26464,0,9,918,79,37,32,-41,-41,-9788,-14941,-32768,0
573,26579,26588,3,17,920,159,38,25,-42,5,-9662,-14558,0,0
574,26590,26600,0,20,925,143,33,33,-36,-119,-9799,-14594,0,0
576,26709,26719,-4,1,933,575,33,35,-37,-53,-9512,-14809,-32768,0
577,26721,26731,-172,2,930,639,38,29,-40,-287,-9674,-14881,16384,0
579,26843,26853,0,8,928,623,35,33,-41,-269,-9674,-14845,16384,0
580,26855,26865,-2,9,922,0,30,28,-43,-353,-9758,-14707,16384,0
582,26977,26987,2,8,936,271,38,32,-41,-221,-9668,-14635,-32768,0
583,26989,26999,2,11,926,287,32,30,-40,-287,-9799,-14923,16384,0
585,27119,27128,-4,2,936,575,36,35,-41,-209,-9584,-14546,-16384,0
586,27131,27140,2,2,924,47,30,30,-37,-95,-9698,-14617,-32768,0
588,27250,27259,2,13,926,0,36,27,-37,-257,-9524,-14725,-16384,0
589,27264,27274,1,2,929,-175,34,28,-37,-305,-9578,-14857,-32768,0
591,27384,27393,-1,15,921,143,37,30,-38,-17,-9662,-14959,-32768,0
592,27395,27405,2,4,934,-63,40,30,-37,-293,-9835,-14845,-32768,0
594,27517,27527,0,-166,936,319,38,25,-41,-365,-9602,-14929,0,0
595,27529,27539,2,17,928,415,38,33,-38,-251,-9578,-15126,16384,0
597,27651,27661,5,9,936,175,40,29,-41,41,-9428,-14845,-16384,0
598,27663,27673,0,10,927,-319,33,29,-37,-377,-9470,-14881,16384,0
600,27782,27792,0,9,930,591,41,34,-36,-95,-9614,-14839,0,0
601,27805,27814,-1,11,924,127,36,32,-40,-119,-9530,-15138,0,0
603,27924,27934,-3,6,931,-287,33,37,-35,-263,-9919,-15198,-16384,0
604,27936,27945,-4,7,924,399,36,35,-33,-161,-9746,-14971,-32768,0
606,28058,28068,2,4,936,367,41,35,-37,-389,-9829,-14911,-32768,0
607,28070,28079,-2,2,920,271,38,34,-43,-197,-9662,-14941,0,0
609,28191,28201,0,10,927,303,32,27,-33,-53,-9889,-14611,16384,0
610,28203,28213,0,4,919,-191,34,28,-44,-215,-9859,-14827,0,0
612,28326,28335,-6,11,931,399,42,33,-40,-179,-9626,-14917,0,0
613,28337,28347,0,5,928,287,35,32,-43,-269,-9596,-14899,16384,0
615,28456,28466,-4,11,924,287,34,25,-40,-149,-9811,-14725,-16384,0
616,28468,28478,2,10,935,111,36,32,-42,-251,-9596,-14665,16384,0
618,28598,28608,-4,8,929,431,36,36,-38,-173,-9632,-14725,16384,0
619,28610,28619,1,10,928,0,42,33,-36,-173,-9656,-14617,16384,0
621,28732,28741,-1,6,930,591,37,27,-38,-149,-9865,-14893,0,0
622,28743,28753,0,3,930,15,38,32,-43,-293,-9758,-14953,-32768,0
624,28866,28875,0,8,924,239,36,32,-44,-173,-9770,-14917,0,0
625,28878,28887,0,19,937,319,35,29,-35,-281,-9458,-14689,-16384,0
627,28996,29006,2,14,921,-143,35,25,-45,-167,-9692,-14635,16384,0
628,29008,29018,0,15,933,47,43,33,-40,-137,-9794,-14677,0,0
630,29130,29140,2,2,924,431,34,33,-40,-95,-9632,-14875,16384,0
631,29142,29152,2,6,924,767,40,29,-43,-71,-9662,-14875,-32768,0
633,29264,29274,1,10,933,-191,34,30,-34,-383,-9584,-14414,-32768,0
634,29276,29286,0,8,922,47,35,30,-38,23,-9859,-14540,16384,0
636,29406,29416,-4,4,918,-111,41,32,-33,125,-9853,-14611,16384,0
637,29418,29427,0,0,929,-47,34,30,-37,-83,-9572,-14540,-16384,0
639,29537,29546,0,6,922,463,38,32,-41,-281,-9656,-14779,0,0
640,29548,29558,4,16,927,575,34,28,-37,-299,-9764,-14671,-32768,0
642,29671,29680,0,9,925,47,36,34,-40,-347,-9710,-14797,-32768,0
643,29682,29692,3,10,924,559,35,26,-41,-359,-9919,-14911,-32768,0
645,29805,29814,0,13,924,47,33,30,-41,-287,-9524,-14821,16384,0
646,29816,29826,-2,8,932,95,36,30,-42,-191,-9686,-14677,16384,0
648,29938,29948,0,3,926,-207,38,27,-42,-227,-9596,-14863,16384,0
649,29950,29960,-3,11,930,511,43,28,-37,-161,-9656,-14689,16384,0
651,30077,30087,0,11,926,15,35,28,-38,-143,-9518,-15138,0,0
652,30089,30098,-1,3,928,143,35,29,-41,-137,-9895,-14941,-32768,0
654,30211,30221,2,6,927,287,38,30,-41,-317,-9770,-14779,-16384,0
655,30223,30233,4,10,934,447,34,28,-42,-41,-9794,-14785,-32768,0
657,30345,30354,-7,8,924,831,34,28,-42,-77,-9512,-14635,16384,0
658,30357,30366,-7,11,925,31,36,29,-37,-215,-9554,-14797,-32768,0
660,30479,30488,2,6,927,15,41,36,-42,-191,-9716,-14695,-32768,0
661,30490,30500,0,5,927,159,33,34,-40,-131,-9608,-14725,-32768,0
663,30609,30619,4,12,928,527,36,24,-41,-275,-9584,-14719,-32768,0
664,30621,30631,2,10,937,223,34,32,-41,-311,-9746,-14809,-32768,0
666,30743,30753,2,15,921,-223,33,29,-36,-167,-9554,-14749,16384,0
667,30755,30765,3,8,933,127,36,27,-40,-173,-9590,-14929,0,0
669,30885,30894,3,6,924,-303,36,37,-36,-65,-9566,-15096,0,0
670,30897,30906,-4,4,934,143,35,32,-36,-113,-9692,-15264,-32768,0
672,31021,31031,0,3,928,-271,37,29,-41,-233,-9614,-14815,-32768,0
673,31033,31043,-3,3,917,-95,34,34,-40,-317,-9728,-14857,0,0
675,31152,31162,-6,6,927,223,36,29,-35,-131,-9805,-14923,16384,0
676,31167,31176,0,5,926,-271,30,32,-30,-431,-9764,-14965,-32768,0
678,31286,31296,-1,13,919,319,35,32,-40,47,-9554,-14833,-32768,0
679,31298,31307,0,10,927,-31,45,34,-43,-185,-9680,-14851,16384,0
681,31419,31429,2,12,926,463,43,32,-40,0,-9578,-14923,0,0
682,31431,31441,-171,9,921,95,40,33,-41,-161,-9554,-14635,0,0
684,31561,31571,3,12,931,287,36,27,-38,-233,-9770,-15096,-32768,0
685,31573,31583,2,11,928,399,37,32,-40,-257,-9823,-15001,-32768,0
687,31692,31702,-2,5,929,207,40,32,-41,-323,-9764,-14372,16384,0
688,31707,31717,-2,10,933,-63,36,34,-40,-299,-9650,-14869,-32768,0
690,31826,31836,3,1,930,655,38,29,-38,-71,-9656,-14695,16384,0
691,31838,31847,2,11,924,207,38,33,-38,-17,-9835,-14941,-32768,0
693,31960,31969,-1,13,925,143,36,28,-40,-23,-9865,-14767,-32768,0
694,31971,31981,0,1,921,207,37,24,-40,-77,-9979,-14564,16384,0
696,32093,32103,1,6,927,303,35,32,-41,-389,-9853,-14689,0,0
697,32105,32115,0,8,939,47,37,27,-40,-299,-9823,-14821,16384,0
699,32227,32237,-2,14,922,271,37,30,-42,-155,-9805,-14492,-32768,0
700,32239,32249,2,12,931,703,42,34,-40,-221,-9919,-14635,16384,0
702,32366,32375,0,6,920,399,32,27,-37,-119,-9895,-14725,-32768,0
703,32378,32387,1,9,933,143,41,34,-43,-239,-9937,-14941,16384,0
705,32499,32509,3,6,936,-95,34,29,-40,-179,-9841,-14498,0,0
706,32511,32521,2,6,934,559,33,30,-38,-17,-9788,-14534,-16384,0
708,32633,32643,4,6,929,-479,38,30,-38,-113,-9913,-14791,16384,0
709,32645,32655,3,17,928,479,35,35,-41,-203,-9734,-14588,-32768,0
711,32767,32777,0,8,923,319,41,27,-40,-508,-9704,-15054,0,0
712,32779,32788,1,6,926,175,34,27,-40,-299,-9901,-15330,-32768,0
714,32898,32907,0,4,922,-223,35,33,-45,-95,-9799,-15180,0,0
715,32910,32919,0,2,937,31,33,28,-40,-203,-9572,-14935,16384,0
717,33039,33049,-1,10,926,143,33,26,-43,-323,-9632,-14552,-32768,0
718,33051,33061,0,12,937,271,37,32,-41,59,-9608,-14779,-32768,0
720,33173,33183,-3,8,923,351,40,28,-38,-233,-9596,-14570,0,0
721,33185,33195,-1,6,922,335,30,29,-43,-149,-9943,-14552,0,0
723,33307,33316,0,3,935,271,32,27,-42,-203,-9859,-14623,0,0
724,33318,33328,-4,13,937,447,34,27,-40,-197,-9799,-14342,16384,0
726,33438,33447,2,0,931,511,38,33,-40,-197,-9668,-14887,-32768,0
727,33449,33459,0,12,933,623,42,32,-40,-203,-9710,-14881,16384,0
729,33572,33581,-2,10,932,271,38,26,-40,-125,-9500,-14570,-16384,0
730,33583,33593,0,10,931,-79,37,27,-36,-185,-9662,-14731,0,0
732,33705,33715,0,8,922,111,37,30,-43,-107,-9782,-14617,0,0
733,33717,33727,-6,9,928,415,40,36,-43,-281,-9632,-14695,-32768,0
735,33846,33856,1,3,930,399,37,36,-45,-287,-9889,-14653,-32768,0
736,33858,33868,2,4,929,591,36,33,-38,-233,-9752,-14552,0,0
738,33977,33987,-8,12,917,463,33,29,-35,-293,-9704,-14366,-16384,0
739,33989,33999,2,7,930,335,37,30,-37,-305,-9680,-14755,-32768,0
741,34111,34121,2,8,937,-95,37,27,-37,-293,-9901,-14522,16384,0
742,34123,34133,10,4,923,63,34,33,-37,-209,-9716,-14492,-32768,0
744,34245,34255,3,13,929,-143,41,30,-38,-221,-9811,-15078,-16384,0
745,34257,34267,-1,9,934,127,42,34,-37,-233,-9985,-14959,-32768,0
747,34379,34388,-2,21,923,735,36,29,-43,-377,-9919,-14779,16384,0
748,34390,34400,0,12,933,431,33,34,-43,-113,-9692,-14695,0,0
750,34510,34519,-2,8,930,431,33,28,-36,-341,-9829,-15031,0,0
751,34532,34542,-2,7,926,431,37,32,-41,-221,-9572,-14683,16384,0
753,34651,34661,-2,6,935,927,34,32,-43,-233,-9758,-14833,0,0
754,34663,34672,-1,10,924,-31,36,27,-40,-443,-9632,-14875,0,0
756,34785,34794,2,15,928,271,34,29,-41,-275,-9626,-14773,0,0
757,34797,34806,2,4,928,-63,40,33,-41,-245,-9841,-14893,16384,0
759,34918,34928,7,0,921,463,36,34,-41,-197,-9620,-14713,-16384,0
760,34930,34940,1,17,924,159,30,30,-42,-203,-9626,-14426,-32768,0
762,35050,35059,-2,7,933,-47,37,30,-43,-101,-9841,-14552,-32768,0
763,35064,35074,0,7,936,511,35,29,-37,-95,-9746,-14504,16384,0
765,35183,35193,1,10,923,367,40,35,-42,-113,-9668,-14713,-32768,0
766,35195,35205,0,12,933,-175,36,28,-38,-41,-9746,-14899,0,0
768,35325,35334,0,3,924,-127,34,34,-34,-197,-9632,-14474,-16384,0
769,35337,35346,-4,15,933,-143,36,34,-41,-173,-9728,-14833,-16384,0
771,35458,35468,-3,0,923,223,34,30,-41,-95,-9764,-14929,-32768,0
772,35470,35480,0,8,928,319,37,29,-41,-179,-9668,-14869,-32768,0
774,35595,35604,-3,8,926,607,34,33,-37,-35,-9722,-14444,-32768,0
775,35607,35616,0,8,923,-303,42,29,-41,-227,-9746,-14558,-32768,0
777,35726,35735,-3,10,925,623,37,32,-42,-269,-9650,-14372,16384,0
778,35737,35747,0,6,935,0,35,33,-44,-161,-9578,-14707,16384,0
780,35860,35869,0,13,928,239,37,33,-41,-95,-9644,-14749,-16384,0
781,35871,35881,2,13,924,495,38,30,-38,-179,-9632,-14917,0,0
783,35993,36003,6,13,931,31,38,35,-43,-466,-9632,-14839,-16384,0
784,36005,36015,0,5,934,0,37,29,-43,-329,-9758,-14881,-32768,0
786,36135,36145,4,4,924,0,37,25,-42,-155,-9608,-14384,-32768,0
787,36147,36156,0,6,932,143,38,30,-37,-107,-9500,-14486,0,0
789,36266,36275,-3,4,931,319,38,29,-42,-173,-9716,-14935,-32768,0
790,36278,36287,2,7,927,31,34,30,-43,-239,-9638,-14845,16384,0
792,36400,36409,2,13,932,223,32,29,-36,-65,-9494,-14695,-32768,0
793,36411,36421,-4,8,938,415,37,30,-40,-179,-9524,-14707,-16384,0
795,36534,36543,0,14,926,303,34,34,-37,-191,-9482,-14677,16384,0
796,36545,36555,-4,8,933,159,37,34,-38,-137,-9614,-14498,16384,0
798,36668,36677,-6,5,926,623,35,28,-37,-257,-9704,-14492,-32768,0
799,36679,36689,2,2,924,383,37,33,-38,-143,-9476,-14617,16384,0
801,36806,36816,1,16,923,463,34,29,-40,-203,-9566,-14282,16384,0
802,36818,36828,-1,2,928,0,38,36,-40,-293,-9542,-14582,16384,0
804,36940,36950,3,7,932,-367,36,28,-37,-460,-9740,-14671,0,0
805,36952,36962,3,6,928,-127,35,29,-37,-383,-9853,-14546,16384,0
807,37074,37084,2,8,935,447,38,26,-40,-329,-9901,-14462,16384,0
808,37086,37096,0,8,929,159,38,30,-40,-317,-9955,-14725,-32768,0
810,37208,37217,0,4,926,575,32,30,-38,-359,-9788,-14695,16384,0
811,37220,37229,1,9,935,479,36,33,-41,-383,-9943,-14528,-32768,0
813,37339,37348,1,2,922,239,40,32,-40,-233,-9811,-14552,0,0
814,37350,37360,1,13,930,95,38,30,-42,-347,-9794,-14845,-16384,0
0,884,894,1,7,926,-239,36,26,-38,-323,-9973,-14546,16384,0
1,1005,1015,4,4,923,-511,30,38,-40,0,-9949,-14881,-32768,0
0,888,898,0,8,922,0,35,37,-37,107,-9650,-14605,-32768,0
1,1009,1019,2,2,926,511,38,33,-41,29,-9853,-14677,16384,0
3,1135,1144,3,3,925,287,43,34,-37,-5,-9794,-14510,-16384,0
4,1256,1266,2,11,930,175,42,30,-38,215,-9865,-14336,16384,0
6,1378,1388,0,8,929,415,40,35,-35,425,-9746,-14558,-16384,0
7,1502,1512,-2,13,926,447,32,26,-35,-245,-9841,-14390,-32768,0
9,1625,1634,-4,16,925,0,42,34,-41,161,-9841,-14528,-32768,0
10,1746,1756,1,12,926,127,40,35,-41,-23,-9764,-14438,16384,0
12,1871,1881,2,2,919,-191,36,29,-42,-53,-9859,-14653,0,0
13,1992,2002,2,6,929,-111,30,33,-40,5,-9985,-14462,16384,0
15,2125,2135,3,7,932,-47,38,29,-40,-257,-9758,-14558,16384,0
16,2246,2256,0,3,926,383,38,30,-40,-23,-9865,-14785,-32768,0
18,2371,2381,2,11,920,15,42,34,-37,-35,-9722,-14653,0,0
19,2492,2502,0,6,928,479,33,30,-36,-47,-9578,-14570,16384,0
21,2614,2624,-2,3,931,527,33,27,-42,0,-9644,-14683,-16384,0
22,2735,2745,171,4,920,287,34,35,-37,161,-9734,-14635,-32768,0
24,2860,2870,2,10,925,-351,34,32,-41,161,-9704,-14797,0,0
25,2981,2991,2,11,926,511,40,34,-38,-5,-9758,-14827,-32768,0
27,3106,3116,-10,2,921,687,34,25,-35,17,-9752,-15007,0,0
28,3228,3238,0,6,928,719,32,28,-37,-95,-9566,-14803,16384,0
30,3353,3363,-2,15,925,527,37,33,-43,77,-9722,-14522,0,0
31,3474,3484,0,10,928,575,37,34,-36,-65,-9698,-14701,16384,0
33,3604,3614,-174,13,932,415,37,30,-41,185,-9620,-14480,0,0
34,3725,3735,-4,9,924,47,35,29,-37,203,-9829,-14623,16384,0
36,3850,3860,-7,2,935,607,42,30,-37,-95,-9758,-14432,0,0
37,3971,3981,-1,8,934,767,44,33,-38,197,-9524,-14623,16384,0
39,4097,4106,-3,10,920,463,37,33,-38,-155,-9674,-14438,16384,0
40,4218,4228,-1,17,933,255,43,34,-41,101,-9518,-14186,-32768,0
42,4343,4353,2,4,935,-15,36,34,-42,269,-9859,-14570,0,0
43,4465,4475,-6,11,930,0,36,28,-38,95,-9602,-14719,-32768,0
45,4587,4597,0,4,926,511,30,26,-41,17,-9859,-14600,-16384,0
46,4708,4718,-2,5,931,95,36,28,-41,-137,-9626,-14270,-16384,0
48,4841,4851,-2,11,932,319,37,29,-37,-77,-9662,-14426,-16384,0
49,4962,4972,-4,6,924,367,38,36,-42,-125,-9823,-14779,16384,0
51,5090,5100,3,13,930,607,37,34,-41,-167,-9847,-14647,16384,0
52,5211,5221,3,11,932,-127,35,30,-45,155,-9674,-14743,-16384,0
54,5336,5346,3,6,923,-175,40,32,-37,-77,-9859,-14791,16384,0
55,5457,5467,0,15,927,335,36,30,-41,179,-9865,-14719,-32768,0
57,5579,5589,0,9,924,559,38,29,-37,-167,-9919,-14623,0,0
58,5701,5711,2,1,929,607,42,29,-38,-149,-9704,-14564,16384,0
60,5826,5836,-4,6,923,303,40,28,-40,-179,-9710,-14366,16384,0
61,5948,5958,-3,10,934,319,38,30,-37,-185,-9931,-14629,-32768,0
63,6073,6083,2,6,923,511,40,30,-48,-185,-9782,-14827,0,0
64,6195,6205,-3,1,923,559,36,30,-45,-221,-9829,-14336,-32768,0
66,6328,6337,-2,10,930,-207,40,34,-45,-137,-9841,-14725,16384,0
67,6449,6459,0,8,926,735,36,34,-41,-125,-9758,-14647,16384,0
69,6571,6581,0,8,928,127,38,32,-42,-137,-9961,-14432,0,0
70,6695,6705,-4,5,928,0,34,29,-38,-47,-9578,-14743,-32768,0
72,6818,6827,0,9,932,239,32,30,-36,59,-9847,-14731,-32768,0
73,6939,6949,-2,6,929,191,35,36,-40,107,-9776,-14468,-32768,0
75,7064,7074,1,10,932,367,41,35,-36,-209,-9728,-15025,-16384,0
76,7185,7195,-3,7,926,175,36,35,-37,-41,-9728,-15037,-32768,0
78,7310,7320,2,4,921,591,36,36,-40,-5,-10003,-14438,0,0
79,7431,7441,1,13,924,687,35,29,-41,-113,-9853,-14600,16384,0
81,7553,7563,0,8,927,143,36,27,-42,-59,-9668,-14576,16384,0
82,7685,7695,1,14,943,63,37,30,-35,-5,-9638,-14695,16384,0
84,7807,7817,2,17,926,207,36,30,-42,23,-9674,-14659,0,0
85,7928,7938,4,2,924,-143,42,36,-44,-95,-9704,-14450,-32768,0
87,8053,8063,1,10,929,0,35,26,-42,53,-9650,-14564,-16384,0
88,8174,8184,-3,4,933,719,37,33,-38,-143,-9865,-14498,-32768,0
90,8299,8309,171,4,923,0,40,32,-41,-257,-9716,-14600,-16384,0
91,8420,8430,2,4,924,47,41,33,-37,-299,-9782,-14462,-32768,0
93,8545,8555,-1,4,932,207,36,28,-37,-149,-9883,-14701,0,0
94,8667,8677,3,11,928,351,40,32,-42,-83,-9686,-14677,-32768,0
96,8789,8799,0,13,925,303,40,30,-37,-11,-9728,-14576,0,0
97,8910,8920,-2,3,929,655,37,27,-38,47,-9752,-14737,0,0
99,9043,9053,1,4,926,-111,38,33,-38,-23,-9662,-14570,-32768,0
100,9164,9174,4,9,933,-207,36,29,-38,-119,-9817,-14588,-32768,0
102,9289,9299,1,15,936,-127,36,27,-42,125,-9512,-14629,-32768,0
103,9410,9420,3,8,935,351,35,28,-37,215,-9674,-15001,-32768,0
105,9535,9545,2,3,928,239,41,29,-37,89,-9650,-14785,16384,0
106,9657,9667,2,12,931,367,37,25,-38,-59,-9740,-14677,16384,0
108,9779,9789,2,11,937,-95,40,34,-40,53,-9674,-14665,-16384,0
109,9900,9910,2,16,927,-239,41,30,-38,83,-9794,-14546,-32768,0
111,10025,10035,0,4,924,223,37,32,-42,89,-10027,-14707,-16384,0
112,10146,10156,2,9,928,511,36,33,-40,0,-9943,-14707,-32768,0
114,10271,10281,-4,6,922,431,41,32,-42,-299,-9776,-14450,16384,0
115,10392,10402,0,1,930,623,40,35,-35,-191,-9967,-14779,-16384,0
117,10525,10534,-2,15,925,-191,35,34,-38,65,-9788,-14641,-32768,0
118,10646,10656,2,4,919,191,42,37,-38,101,-9602,-14594,-32768,0
120,10768,10778,4,5,927,95,37,33,-40,-23,-9746,-14629,0,0
121,10889,10899,2,13,928,127,37,27,-38,-203,-9776,-14498,16384,0
123,11014,11024,3,4,935,543,36,34,-38,-233,-9560,-14929,0,0
124,11135,11145,0,3,933,31,45,32,-40,77,-9674,-14528,16384,0
126,11260,11270,3,13,926,383,38,30,-38,-191,-9871,-14480,16384,0
127,11381,11391,0,13,921,207,41,26,-42,-143,-9841,-14719,16384,0
129,11506,11516,3,9,925,159,33,26,-41,-215,-9829,-14899,16384,0
130,11627,11637,0,11,926,719,38,29,-41,23,-9728,-14689,-32768,0
132,11757,11766,-5,16,926,303,33,27,-42,-89,-10075,-15108,-32768,0
133,11878,11888,173,8,928,-95,38,32,-38,-173,-9692,-14959,-32768,0
135,12003,12013,3,8,930,735,33,30,-36,-365,-9710,-14594,-16384,0
136,12125,12135,0,10,931,111,38,27,-38,-227,-9919,-14989,-32768,0
138,12250,12260,-6,12,920,511,30,33,-41,-137,-9865,-14875,-32768,0
139,12371,12381,20,8,939,-47,12,-56,-42,-143,-9997,-14761,16384,0
141,12496,12506,21,-164,931,783,35,62,-28,-341,-9626,-14899,0,0
142,12617,12627,-43,-21,956,415,288,-136,-340,-245,-9566,-15144,-16384,0
144,12739,12749,15,1,958,-47,269,663,-1480,933,-10027,-15581,16384,0
145,12860,12870,121,-116,876,543,158,615,-462,3777,-9518,-16647,-32768,0
147,12985,12995,123,-91,977,-159,147,142,-261,4585,-9297,-16677,0,0
148,13107,13117,123,-21,943,495,-57,69,-150,4633,-9524,-16246,16384,0
150,13242,13252,103,-71,933,703,28,34,-101,4747,-9823,-16671,-32768,0
151,13363,13373,115,-32,935,-47,73,-26,-49,4855,-9847,-16809,16384,0
153,13488,13498,119,-71,913,127,20,16,-74,4765,-9632,-16521,-16384,0
154,13609,13619,121,-67,913,127,83,-46,-67,4531,-9518,-16892,-32768,0
156,13731,13741,119,-60,928,479,85,-34,-69,4465,-9225,-16797,16384,0
157,13855,13865,126,-69,939,591,49,34,-30,4346,-9350,-16647,-32768,0
159,13978,13987,94,-58,929,31,28,14,-59,4358,-9321,-16665,-32768,0
160,14099,14109,115,-72,928,63,20,-1,-42,4136,-9327,-16479,-32768,0
162,14224,14234,113,-68,920,415,40,17,-53,4286,-9303,-16198,-32768,0
163,14345,14355,118,-78,916,47,30,30,-52,4459,-9362,-16707,16384,0
165,14478,14488,102,-72,926,351,14,6,-44,4190,-9428,-16473,-32768,0
166,14599,14609,97,-71,936,319,12,76,-45,4448,-9524,-16443,16384,0
168,14721,14731,113,-54,940,271,37,59,-35,4675,-9584,-16743,-16384,0
169,14846,14856,-124,-126,893,639,448,-1971,193,2789,-7674,-16342,16384,0
171,14968,14978,147,-23,868,95,-402,3587,-1276,3657,-9135,-16874,-16384,0
172,15089,15099,-115,-78,1037,287,68,-1909,449,7141,-9650,-17192,16384,0
174,15214,15224,178,6,984,0,122,1255,-227,1251,-8027,-16563,-32768,0
175,15335,15345,-145,-152,1036,335,73,263,132,7213,-9129,-17365,16384,0
177,15460,15470,556,113,1135,623,249,-950,366,1323,-7722,-16527,16384,0
178,15582,15592,-160,-225,863,367,348,969,155,7004,-8740,-17293,-32768,0
180,15707,15717,345,-100,978,271,180,-2305,130,3663,-8177,-16874,0,0
181,15828,15838,116,-90,826,207,-463,2222,446,6561,-8913,-17168,-16384,0
183,15958,15968,107,-304,904,319,535,-2400,-376,5549,-8213,-17174,-16384,0
184,16079,16089,-34,-160,813,143,-339,2689,475,7674,-8985,-17006,-32768,0
186,16204,16214,97,-301,919,0,428,-3280,-86,5429,-8345,-17120,0,0
187,16325,16335,250,-104,762,0,-770,3024,351,5507,-8638,-17042,16384,0
189,16450,16460,-245,-233,843,159,221,-2048,-76,7567,-9542,-17281,16384,0
190,16572,16582,551,89,1035,463,42,1740,-507,2304,-7926,-16827,-32768,0
192,16697,16707,-325,-174,1011,319,-208,-88,-162,7387,-9303,-17293,-32768,0
193,16818,16828,723,254,1126,671,134,-1088,211,2035,-8405,-16671,-32768,0
195,16940,16950,-563,-437,1244,143,155,543,495,7830,-9716,-17000,-16384,0
196,17061,17071,525,-148,1272,847,643,-2387,-869,2981,-8045,-17132,-32768,0
198,17194,17203,-276,-394,966,-303,-64,1640,1428,8207,-9817,-17275,-16384,0
199,17315,17325,117,-422,1149,47,814,-3185,-868,4262,-8848,-17042,16384,0
201,17440,17450,133,-84,787,367,-781,2086,1214,6579,-9686,-17210,16384,0
202,17562,17572,-162,-189,899,159,610,-2763,-736,6657,-9811,-17264,-32768,0
204,17687,17697,458,-128,904,719,-968,3106,-144,3633,-8482,-17150,-32768,0
205,17808,17818,-278,-202,998,0,161,-1055,-394,8482,-9961,-17353,-16384,0
207,17930,17940,702,202,1054,79,153,1734,-433,2532,-8087,-16844,-32768,0
208,18051,18061,-579,-174,1115,-63,53,-1051,-219,9231,-10189,-17174,-32768,0
210,18176,18186,764,215,1069,703,195,1389,-619,2729,-8548,-16485,16384,0
211,18297,18307,-452,-276,968,31,29,256,686,9542,-10266,-17365,16384,0
213,18422,18432,854,56,1025,127,582,-1914,-1276,3987,-8063,-17036,-32768,0
214,18543,18553,5,-176,776,79,225,1745,1898,8177,-9865,-17521,16384,0
216,18676,18686,271,-202,850,-79,789,-2225,-1079,6746,-9093,-17275,-16384,0
217,18797,18807,287,-71,906,-223,-259,625,716,5735,-8967,-17108,16384,0
219,18919,18929,-254,-292,665,-175,168,-1169,-804,5340,-9285,-17473,16384,0
220,19040,19050,724,53,1254,287,-419,2289,241,3915,-7878,-17275,-32768,0
222,19165,19175,-427,-295,1042,-335,-116,308,292,9626,-10602,-17371,16384,0
223,19287,19297,1189,0,1436,399,-184,-3030,-900,4160,-8411,-16767,16384,0
225,19412,19422,-299,-436,823,335,239,1371,2739,7950,-10398,-17299,-16384,0
226,19533,19543,2,-452,785,-319,1417,-2764,-2420,6902,-9979,-17443,-16384,0
228,19658,19668,443,-203,941,-383,-1344,2773,1947,5998,-8985,-17030,-16384,0
229,19779,19789,-282,-308,804,319,727,-2362,-1715,7902,-10697,-17293,-32768,0
231,19901,19911,763,145,1036,415,-764,2772,514,3591,-8949,-17120,-16384,0
232,20033,20043,-504,-352,1007,399,435,-1748,-1000,7088,-11679,-16922,16384,0
234,20155,20165,852,282,1126,447,-183,1998,-267,3083,-9093,-17054,0,0
235,20276,20286,-887,-322,1091,143,322,-648,40,8518,-11871,-17311,-32768,0
237,20401,20411,929,517,1181,159,76,-37,-252,3238,-9327,-16916,16384,0
238,20522,20532,-593,-338,1015,687,-96,1221,1891,9069,-11410,-17066,-32768,0
240,20647,20657,246,-294,922,-111,1433,-2769,-3376,6411,-9710,-17078,16384,0
241,20769,20779,478,-206,1049,447,-1094,1768,2333,6088,-9530,-16850,-16384,0
243,20892,20901,-730,-412,970,15,-395,-507,-442,9045,-11955,-17102,16384,0
244,21016,21026,1311,748,1437,447,-583,-1400,-827,3466,-8961,-16623,-32768,0
246,21138,21148,-854,-543,877,527,-309,1199,2200,8105,-11230,-17377,0,0
247,21260,21270,284,-324,1034,-127,1404,-2493,-3238,7285,-9638,-17084,-32768,0
249,21395,21405,426,-67,696,111,-865,704,2921,6992,-9937,-16994,-16384,0
250,21517,21527,-564,-441,903,415,-452,-634,-1481,7561,-11542,-17431,16384,0
252,21642,21652,973,631,1248,447,-172,1063,-380,3124,-8536,-16497,-16384,0
253,21763,21773,-941,-419,1004,0,-775,1496,1919,7884,-11314,-17395,-16384,0
255,21888,21898,915,-157,1217,159,1952,-2912,-3075,6196,-9141,-16856,16384,0
256,22010,22020,362,-141,669,479,-430,925,4164,6249,-10368,-17012,-32768,0
258,22132,22142,-408,-443,780,-95,462,-912,-2358,7375,-11206,-17293,-32768,0
259,22253,22263,972,506,1168,447,184,640,-585,2927,-8375,-16575,-32768,0
261,22378,22388,-723,-479,814,687,-399,928,2071,6291,-10362,-17281,-32768,0
262,22499,22509,99,-324,845,-111,1234,-1888,-2826,5423,-9536,-17299,16384,0
264,22625,22634,512,-54,839,191,-1629,1687,3056,5860,-9075,-17120,-32768,0
265,22746,22756,-586,-385,848,255,-371,-492,-1053,7070,-10793,-17533,-16384,0
267,22879,22889,966,452,1197,303,-185,-426,-394,3400,-8453,-16575,16384,0
268,23000,23010,-648,-428,803,63,-436,1292,2303,5956,-10278,-17299,-32768,0
270,23122,23132,-330,-237,824,-95,361,-2283,-2339,5585,-9847,-16785,-16384,0
271,23244,23254,760,2,1097,575,-876,2073,1405,4855,-8818,-16659,-16384,0
273,23369,23379,-678,-500,1070,79,61,-52,-290,6992,-10739,-17485,16384,0
274,23490,23500,1079,0,1188,751,1061,-1283,-2037,5004,-8806,-17102,-32768,0
276,23616,23625,43,-178,815,95,99,1390,2479,7123,-10338,-16952,-32768,0
277,23737,23747,245,-363,1107,63,748,-1533,-2664,5405,-9356,-16958,0,0
279,23862,23872,423,-59,826,271,-688,1460,2643,7764,-10320,-16874,-16384,0
280,23983,23993,-356,-465,849,-207,-117,-1183,-933,7770,-11236,-17210,-32768,0
282,24113,24123,611,407,1011,543,-446,-653,-425,3538,-9398,-16054,0,0
283,24234,24244,-40,-125,982,271,-42,328,682,5908,-10596,-16509,-32768,0
285,24359,24369,254,-1,971,79,261,40,-162,5567,-9925,-16737,16384,0
286,24481,24491,114,-79,958,143,-22,175,-97,5459,-9949,-16779,-32768,0
288,24606,24616,151,-72,927,287,2,86,-48,5902,-10135,-16467,16384,0
289,24728,24738,118,-63,950,543,10,107,-53,6070,-10668,-16443,-32768,0
291,24853,24863,113,-69,925,415,80,-11,-22,6070,-10320,-16605,-32768,0
292,24974,24984,123,-77,935,271,65,8,-33,5645,-10410,-16713,16384,0
294,25096,25106,110,-75,893,223,6,-26,-37,6082,-10248,-16521,-32768,0
295,25218,25228,130,-76,913,671,50,68,-50,5944,-10225,-16461,-32768,0
297,25343,25353,116,-78,939,-303,30,6,-40,5741,-10087,-16449,0,0
298,25465,25475,119,-68,931,-175,42,59,-36,5794,-10350,-16348,-16384,0
300,25598,25608,91,-89,891,415,65,35,-6,5669,-9955,-16587,-32768,0
301,25719,25729,138,-63,835,303,20,-51,-185,5513,-10045,-16389,-32768,0
303,25844,25854,100,-91,975,367,-11,37,-80,5549,-9955,-16551,0,0
304,25965,25975,97,-83,942,431,70,-8,-30,5280,-9973,-16395,-32768,0
306,26088,26097,45,-104,917,15,10,-65,125,5256,-9722,-16503,-16384,0
307,26212,26222,93,-69,941,-95,-8,91,-65,5244,-9704,-16389,-32768,0
309,26334,26344,82,-103,906,143,2,53,-41,5160,-9620,-16575,16384,0
310,26456,26466,79,-87,941,239,124,-42,-35,5136,-9764,-16605,-16384,0
312,26581,26591,83,-81,917,783,24,20,-46,4932,-9584,-16809,16384,0
313,26703,26713,101,-84,922,-95,17,52,-78,5028,-9871,-16743,0,0
315,26836,26845,84,-106,909,-79,40,49,-41,5334,-9644,-16797,-16384,0
316,26957,26967,108,-68,930,367,53,4,-56,5166,-9740,-16593,0,0
318,27080,27089,89,-82,926,287,-22,98,-59,5238,-9961,-16491,0,0
319,27204,27214,90,-61,922,511,-162,142,-93,5597,-10308,-16461,0,0
321,27326,27336,150,-45,983,79,-109,-84,-24,5453,-10883,-16389,16384,0
322,27447,27457,45,-37,950,191,185,-518,91,4082,-10524,-16509,-32768,0
324,27572,27582,54,-81,911,559,22,-1,-170,3819,-10302,-16569,0,0
325,27693,27703,47,-77,948,543,109,271,-167,4543,-10231,-16545,-16384,0
327,27818,27828,86,-83,920,255,51,272,-213,5375,-10201,-16785,-32768,0
328,27939,27949,142,-43,930,191,-26,204,-128,6172,-10452,-16437,-16384,0
330,28064,28074,105,-61,914,383,18,305,-5,6926,-10709,-16575,0,0
331,28186,28196,149,-82,917,399,26,168,36,7363,-10626,-16378,-32768,0
333,28316,28326,176,-81,950,-191,-1,142,-45,7561,-10542,-16443,16384,0
334,28437,28447,237,-43,910,207,48,136,-104,7788,-10721,-16527,16384,0
336,28562,28572,141,-80,902,335,13,134,-74,8039,-10715,-15970,0,0
337,28684,28694,139,-93,930,767,-1,99,-5,8117,-11069,-16000,-16384,0
339,28809,28819,195,-66,918,399,58,11,-86,8459,-10823,-16042,-32768,0
340,28931,28941,232,-23,903,319,52,48,-52,8231,-10925,-16425,-32768,0
342,29056,29066,201,-50,926,143,11,100,-34,8453,-10787,-16006,-16384,0
343,29178,29188,208,-54,909,351,29,33,-54,8381,-10955,-16090,-32768,0
345,29300,29310,221,-45,916,-15,41,43,-51,8423,-10991,-16156,0,0
346,29421,29431,204,-57,902,-127,12,62,-38,8686,-10979,-16186,-16384,0
348,29556,29566,199,-56,903,511,26,73,-28,8668,-10913,-16198,-16384,0
349,29678,29688,221,-41,909,639,46,48,-46,8740,-10985,-16150,-16384,0
351,29803,29813,215,-45,912,-175,26,14,-43,8740,-11123,-16036,-32768,0
352,29925,29935,221,-50,903,-191,14,10,-58,8818,-11170,-15929,-16384,0
354,30050,30060,211,-43,913,79,30,35,-35,8632,-11170,-16030,16384,0
355,30171,30181,208,-51,905,415,25,54,-26,8872,-11152,-16042,-16384,0
357,30293,30303,223,-42,903,-79,40,57,-24,8770,-11099,-16378,16384,0
358,30414,30424,219,-37,911,255,30,28,-49,8842,-11045,-16090,-32768,0
360,30540,30549,232,-46,913,671,45,-34,-69,8866,-11140,-16060,-32768,0
361,30661,30671,233,-37,918,-159,29,21,-53,8740,-11182,-15988,-16384,0
363,30786,30796,218,-45,920,-95,46,20,-49,8776,-11099,-16072,0,0
364,30907,30917,214,-37,898,511,20,28,-37,8650,-11242,-15857,-16384,0
366,31040,31050,213,-40,909,-31,48,36,-38,8830,-11380,-15970,-32768,0
367,31161,31171,221,-19,903,207,20,40,-46,8967,-11284,-15749,0,0
369,31283,31293,221,-25,896,319,24,-2,-36,8818,-11314,-15803,0,0
370,31404,31414,203,2,921,223,-32,21,3,8596,-11326,-16144,-16384,0
372,31530,31539,224,-45,965,799,185,177,42,8776,-10979,-16120,-32768,0
373,31651,31661,283,-21,833,127,-85,164,-104,9710,-11069,-16228,-16384,0
375,31776,31786,273,-39,889,367,27,83,-75,9865,-11099,-15923,-16384,0
376,31897,31907,255,-30,909,0,29,-8,-52,9913,-11470,-15791,0,0
378,32022,32032,254,-39,902,-15,19,24,-72,9764,-11344,-15533,16384,0
379,32144,32154,250,-30,906,191,1,57,-19,9728,-11326,-15994,-32768,0
381,32266,32276,245,-36,885,63,27,48,-21,9805,-11242,-15785,16384,0
382,32398,32408,271,-29,880,687,48,12,-43,9829,-11320,-15641,-16384,0
384,32520,32530,271,-28,895,-47,29,17,-37,9548,-11182,-15707,16384,0
385,32642,32652,250,-36,898,415,27,36,-38,9746,-11476,-15713,-16384,0
387,32767,32777,263,-40,901,207,44,50,-36,9668,-11416,-15593,16384,0
388,32889,32899,270,-32,905,447,48,42,-17,9847,-11266,-15581,0,0
390,33014,33024,254,-29,876,127,-6,-61,-10,9716,-11470,-16030,-32768,0
391,33135,33145,156,-70,933,143,202,-438,363,8488,-11314,-15875,-16384,0
393,33258,33267,117,-50,895,575,130,-458,390,6483,-10985,-15970,-16384,0
394,33382,33392,135,-50,958,-191,178,-300,402,4005,-11170,-15731,-16384,0
396,33504,33514,27,7,956,159,-92,-65,385,2993,-10931,-15641,0,0
397,33625,33635,44,54,930,463,-219,35,97,2442,-11434,-15114,16384,0
399,33758,33768,0,20,922,239,-209,-147,0,2400,-11895,-15108,16384,0
400,33879,33889,50,51,946,431,18,163,-53,2664,-12416,-14941,-16384,0
402,34004,34014,88,78,912,623,30,41,-43,3603,-12661,-15001,16384,0
403,34125,34135,78,58,918,175,33,22,-37,3406,-12529,-14629,-16384,0
405,34251,34260,75,62,924,367,27,49,-28,3645,-12446,-14719,0,0
406,34372,34382,79,62,922,95,35,24,-32,3532,-12607,-14815,0,0
408,34494,34504,76,60,919,175,43,30,-40,3615,-12380,-14582,-16384,0
409,34615,34625,77,65,921,655,42,34,-40,3550,-12278,-14809,-16384,0
411,34740,34750,84,67,924,-95,35,29,-40,3466,-12487,-14510,-16384,0
412,34862,34872,80,55,929,415,35,25,-40,3633,-12607,-14731,0,0
414,34987,34997,89,63,926,383,32,27,-41,3657,-12565,-14671,-16384,0
415,35108,35118,85,63,921,703,35,29,-37,3442,-12458,-14402,0,0
417,35241,35251,80,69,912,31,38,32,-40,3609,-12559,-14534,-16384,0
418,35362,35372,80,65,922,-63,36,33,-33,3400,-12499,-14809,0,0
420,35484,35494,76,66,926,319,38,30,-40,3550,-12523,-14971,16384,0
421,35605,35615,84,61,922,-111,37,32,-42,3520,-12649,-14905,16384,0
423,35730,35740,76,62,928,463,38,29,-37,3244,-12601,-14917,-16384,0
424,35852,35862,87,61,920,0,35,32,-38,3717,-12434,-15007,0,0
426,35977,35987,69,63,925,47,38,32,-43,3478,-12571,-14791,0,0
427,36098,36108,80,78,920,143,34,32,-40,3322,-12452,-14522,0,0
429,36223,36233,72,67,925,15,38,27,-37,3585,-12422,-14701,0,0
430,36345,36355,75,54,924,31,33,29,-42,3358,-12667,-14755,0,0
432,36475,36485,75,61,917,735,34,30,-41,3310,-12236,-14791,0,0
433,36596,36606,83,48,934,703,34,28,-36,3532,-12050,-14731,16384,0
435,36722,36731,76,67,928,143,42,33,-40,3795,-12344,-14671,-16384,0
436,36843,36853,78,63,918,255,36,33,-40,3520,-12547,-14977,0,0
438,36968,36978,76,59,913,655,34,29,-41,3454,-12475,-15001,-16384,0
439,37089,37099,83,69,913,191,32,27,-41,3520,-12278,-14839,-16384,0
441,37214,37224,74,36,925,479,36,26,-42,3550,-12248,-14923,0,0
442,37336,37346,73,54,926,63,30,24,-40,3478,-12416,-14761,16384,0
444,37458,37468,75,56,923,607,41,30,-41,3621,-12398,-14611,0,0
445,37579,37589,68,69,914,479,37,30,-43,3532,-12296,-14839,16384,0
447,37705,37714,76,59,939,15,38,32,-36,3675,-12464,-14635,0,0
448,37826,37836,82,56,915,223,35,33,-40,3579,-12464,-14701,0,0
450,37961,37971,82,65,935,383,36,32,-43,3448,-12475,-14743,16384,0
451,38082,38092,78,56,921,687,36,30,-43,3711,-12374,-14971,16384,0
453,38207,38217,82,63,928,655,38,28,-40,3579,-12571,-14983,16384,0
454,38329,38339,75,58,918,271,35,28,-46,3561,-12434,-14665,16384,0
456,38451,38461,82,60,924,383,35,33,-41,3430,-12440,-15007,0,0
457,38575,38585,88,57,927,-335,33,28,-37,3609,-12416,-14809,0,0
459,38698,38707,84,60,928,-111,38,24,-38,3256,-12481,-14833,16384,0
460,38819,38829,84,65,928,79,41,29,-45,3508,-12290,-14875,0,0
462,38944,38954,84,63,922,-223,35,29,-38,3406,-12493,-15384,0,0
463,39065,39075,81,65,923,367,35,30,-44,3502,-12278,-14911,0,0
465,39198,39208,71,65,924,479,34,29,-43,3364,-12296,-15066,16384,0
466,39319,39329,86,54,922,383,35,28,-43,3322,-12302,-15102,16384,0
468,39442,39451,80,60,922,79,34,30,-40,3478,-12272,-15228,0,0
469,39566,39576,85,62,926,447,33,29,-37,3693,-12559,-15228,0,0
471,39688,39698,79,59,935,543,36,27,-43,3681,-12290,-15037,0,0
472,39810,39820,80,61,934,111,33,27,-40,3514,-12338,-14953,16384,0
474,39935,39945,72,61,922,-31,33,33,-37,3484,-12098,-15216,-16384,0
475,40056,40066,79,63,922,303,33,26,-43,3669,-12320,-15037,0,0
477,40181,40191,87,57,915,-207,36,29,-36,3424,-12302,-14827,-16384,0
478,40303,40313,73,56,923,495,38,32,-42,3651,-10967,-14935,0,0
480,40428,40438,76,56,921,207,41,37,-37,3466,-12212,-14815,-16384,0
481,40549,40559,82,64,921,575,40,27,-42,3364,-12314,-14815,16384,0
483,40679,40689,80,60,923,351,35,32,-40,3436,-12320,-15007,-16384,0
484,40800,40810,74,64,917,79,30,27,-45,3418,-12416,-14875,0,0
486,40925,40935,78,58,930,303,32,28,-37,3556,-12643,-15013,16384,0
487,41046,41056,74,61,918,-31,36,26,-40,3418,-12565,-14611,0,0
489,41172,41181,87,62,917,559,35,24,-44,3538,-12464,-14827,16384,0
490,41293,41303,75,66,924,-31,36,30,-42,3526,-12499,-14893,0,0
492,41418,41428,76,63,922,703,37,25,-44,3280,-12320,-14570,-32768,0
493,41539,41549,73,65,913,671,36,29,-46,3693,-12404,-14480,0,0
495,41661,41671,80,68,938,127,37,27,-41,3358,-12631,-14665,-16384,0
496,41783,41793,82,62,926,0,34,28,-41,3567,-12404,-14689,0,0
498,41916,41925,77,61,917,335,34,33,-38,3484,-12464,-14474,-16384,0
499,42037,42047,82,63,924,271,37,28,-41,3400,-12469,-14408,0,0
501,42162,42172,82,58,932,335,35,26,-40,3609,-12452,-14432,16384,0
502,42284,42294,84,60,929,351,36,29,-45,3526,-12326,-14276,0,0
504,42409,42418,72,60,919,31,38,30,-44,3352,-12260,-14635,16384,0
505,42530,42540,79,64,927,31,41,32,-43,3466,-12362,-14653,16384,0
507,42652,42662,77,60,928,191,41,27,-36,3771,-12458,-14701,-16384,0
508,42773,42783,78,60,926,0,35,29,-38,3627,-12613,-14564,16384,0
510,42898,42908,74,69,922,127,37,33,-37,3340,-12428,-14785,0,0
511,43019,43029,82,71,915,127,38,29,-38,3448,-12410,-14576,0,0
513,43144,43154,81,67,927,399,38,34,-36,3651,-12254,-14965,16384,0
514,43265,43275,83,58,930,447,35,28,-45,3675,-12517,-14773,16384,0
516,43397,43407,75,67,928,191,38,32,-38,3843,-12440,-14779,0,0
517,43518,43528,76,60,922,31,37,34,-36,3759,-12344,-14953,-32768,0
519,43640,43650,81,64,926,-63,28,32,-41,3442,-12559,-14396,-16384,0
520,43761,43771,80,64,931,239,40,30,-37,3633,-12254,-14617,0,0
522,43886,43896,72,67,922,-111,38,26,-35,3693,-12535,-14492,0,0
523,44008,44018,80,63,915,175,34,28,-45,3639,-12290,-14564,0,0
525,44133,44143,80,61,926,31,33,22,-38,3508,-12278,-14965,-32768,0
526,44254,44264,69,55,926,0,36,29,-33,3526,-12559,-14827,16384,0
528,44379,44389,84,57,921,511,42,30,-41,3436,-12493,-14839,0,0
529,44500,44510,89,69,932,63,37,29,-40,3705,-12110,-15031,0,0
531,44622,44632,78,56,927,175,38,25,-37,3556,-12458,-14611,0,0
532,44754,44764,82,58,925,559,36,27,-41,3454,-12350,-14432,0,0
534,44876,44886,76,61,923,63,36,26,-37,3268,-12404,-14797,0,0
535,44997,45007,67,65,921,159,41,33,-42,3633,-12326,-14965,16384,0
537,45122,45132,76,63,936,607,33,27,-33,3418,-12338,-14570,-32768,0
538,45243,45253,82,58,921,479,35,27,-41,3376,-12368,-15174,-32768,0
540,45368,45378,82,67,928,575,38,27,-41,3633,-12667,-14851,-16384,0
541,45489,45499,71,56,923,79,33,22,-38,3597,-12434,-14623,-16384,0
543,45612,45621,77,66,917,287,33,30,-41,3430,-12356,-14773,-16384,0
544,45736,45746,75,54,930,431,35,32,-43,3298,-12410,-14731,0,0
546,45858,45868,76,60,924,47,30,30,-37,3496,-12428,-14671,0,0
547,45979,45989,68,54,929,271,44,26,-38,3454,-12577,-15049,0,0
549,46114,46124,78,62,922,-15,36,28,-44,3460,-12565,-14983,0,0
550,46235,46245,78,63,920,79,41,28,-45,3472,-12350,-14683,16384,0
552,46360,46370,74,57,919,319,34,25,-37,3460,-12469,-14504,-16384,0
553,46481,46491,80,65,923,527,36,33,-36,3220,-12320,-14510,16384,0
555,46606,46616,73,71,926,255,37,22,-42,3460,-12559,-14300,16384,0
556,46728,46738,76,63,917,319,36,37,-43,3496,-12380,-14594,-32768,0
558,46850,46860,80,67,927,351,42,29,-41,3544,-12218,-14719,16384,0
559,46971,46981,81,61,917,79,37,34,-41,3508,-12290,-14791,-32768,0
561,47096,47106,74,65,927,511,38,34,-40,3226,-12517,-14438,0,0
562,47217,47227,82,62,920,175,37,32,-42,3436,-12440,-14528,16384,0
564,47342,47352,74,66,930,0,37,34,-40,3316,-12374,-14683,16384,0
565,47463,47473,86,63,922,319,35,34,-46,3484,-12212,-14737,-32768,0
567,47596,47606,78,60,924,767,41,27,-37,3484,-12194,-14947,16384,0
568,47717,47727,80,66,926,463,27,30,-41,3298,-12146,-14851,0,0
570,47839,47849,71,54,918,-143,44,26,-37,3490,-12607,-14689,16384,0
571,47960,47970,83,62,915,31,36,29,-42,3436,-12499,-14779,16384,0
573,48085,48095,79,56,929,447,37,34,-41,3484,-12541,-14797,16384,0
574,48207,48217,91,68,920,351,44,27,-41,3358,-12428,-15078,16384,0
576,48332,48342,78,57,920,47,36,36,-42,3532,-12553,-14935,-32768,0
577,48453,48463,81,67,922,0,38,33,-38,3579,-12679,-14600,16384,0
579,48578,48588,78,63,917,63,35,27,-46,3615,-12386,-14767,16384,0
580,48700,48710,82,56,918,95,37,33,-37,3382,-12649,-14731,0,0
582,48830,48840,74,67,924,655,37,33,-42,3657,-12655,-14839,0,0
583,48951,48961,86,66,924,559,35,27,-41,3729,-12481,-14623,16384,0
585,49076,49086,73,65,922,191,37,29,-40,3561,-12380,-14588,16384,0
586,49197,49207,75,63,920,255,35,28,-37,3448,-12410,-14953,0,0
588,49322,49332,80,63,925,239,35,28,-35,3502,-12499,-14911,16384,0
589,49443,49453,80,63,915,319,32,27,-41,3591,-12452,-14546,0,0
591,49568,49578,84,64,920,-191,38,24,-37,3466,-12655,-15114,16384,0
592,49689,49699,85,65,916,15,36,25,-40,3627,-12565,-14959,16384,0
594,49811,49821,81,62,918,511,34,32,-37,3675,-12422,-14815,-16384,0
595,49932,49942,73,56,922,111,37,35,-36,3436,-12589,-14827,0,0
597,50057,50067,73,58,927,127,36,26,-42,3520,-12553,-14701,0,0
598,50178,50188,82,62,930,431,38,34,-40,3436,-12416,-14857,16384,0
600,50310,50320,80,66,915,447,36,33,-41,3460,-12613,-14755,0,0
601,50432,50442,73,56,926,-175,38,29,-43,3591,-12769,-14935,16384,0
603,50557,50567,85,58,926,543,40,32,-35,3663,-12314,-14683,16384,0
604,50678,50688,84,56,928,431,36,35,-40,3502,-12589,-14737,-32768,0
606,50800,50810,80,58,933,367,34,27,-37,3735,-12595,-14719,-16384,0
607,50921,50931,84,65,924,463,29,28,-43,3819,-12571,-15276,16384,0
609,51046,51056,73,73,929,79,38,30,-36,3657,-12547,-14953,0,0
610,51167,51177,79,63,920,303,34,30,-41,3639,-12667,-14935,0,0
612,51292,51302,82,60,924,271,38,27,-41,3795,-12374,-14707,0,0
613,51413,51423,79,64,921,319,33,26,-40,3657,-12529,-14953,0,0
615,51546,51556,77,57,922,431,41,30,-42,3573,-12727,-14815,-32768,0
616,51667,51677,75,55,928,303,33,28,-36,3567,-12541,-14851,16384,0
618,51789,51799,83,64,922,-127,37,34,-38,3657,-12841,-14671,-16384,0
619,51914,51924,73,64,923,335,35,33,-36,3729,-12613,-15007,16384,0
621,52036,52046,73,61,919,-127,34,32,-37,3627,-12727,-15162,-16384,0
622,52157,52167,79,71,913,527,33,28,-37,3430,-12565,-15043,0,0
624,52282,52292,76,59,909,335,34,30,-38,3813,-12458,-14845,0,0
625,52403,52413,78,65,922,239,37,28,-40,3609,-12559,-15078,16384,0
627,52528,52538,73,58,923,31,34,30,-41,3633,-12553,-14869,0,0
628,52649,52659,76,69,928,-15,35,28,-41,3502,-12428,-14713,0,0
630,52774,52784,72,57,924,751,35,27,-41,3579,-12493,-14893,0,0
631,52895,52905,72,61,924,47,34,26,-38,3550,-12440,-14725,-16384,0
633,53025,53034,73,62,928,-159,36,30,-33,3579,-12667,-14737,0,0
634,53146,53156,80,66,928,527,36,32,-41,3561,-12517,-14905,-32768,0
636,53271,53281,80,66,923,0,37,32,-36,3597,-12320,-14749,16384,0
637,53392,53402,80,57,923,239,36,30,-46,3711,-12314,-14899,16384,0
639,53517,53527,78,70,917,-127,30,30,-40,3687,-12458,-14761,0,0
640,53638,53648,76,66,919,207,32,32,-41,3657,-12452,-14815,16384,0
642,53763,53773,79,58,925,63,38,30,-40,3681,-12230,-14893,16384,0
643,53884,53894,80,66,925,95,40,29,-38,3472,-12571,-14767,-32768,0
645,54006,54016,82,56,926,479,35,25,-41,3627,-12565,-14719,16384,0
646,54127,54137,78,61,920,303,40,32,-43,3633,-12595,-14989,-32768,0
648,54262,54272,78,60,933,255,41,29,-30,3711,-12523,-15126,16384,0
649,54384,54394,82,60,917,719,37,32,-38,3753,-12374,-14827,16384,0
651,54509,54519,78,68,922,191,41,32,-43,3705,-12464,-14845,0,0
652,54630,54640,79,64,921,-63,35,32,-41,3633,-12416,-14815,16384,0
654,54755,54765,74,58,917,79,38,30,-38,3801,-12326,-14623,16384,0
655,54876,54886,78,63,922,511,33,33,-38,3693,-12314,-15001,16384,0
657,54998,55008,78,55,930,127,36,29,-43,3765,-12493,-14761,-32768,0
658,55119,55129,76,63,930,511,35,33,-34,3567,-12296,-14971,-32768,0
660,55244,55254,79,65,924,127,33,33,-42,3615,-12487,-15037,0,0
661,55365,55375,76,60,910,575,33,24,-40,3603,-12553,-14839,16384,0
663,55490,55500,82,65,927,111,38,27,-34,3567,-12398,-14887,0,0
664,55611,55621,78,63,915,511,38,29,-41,3609,-12487,-15007,-32768,0
666,55744,55754,76,61,924,15,40,28,-40,3603,-12440,-15019,16384,0
667,55865,55875,78,60,917,63,33,28,-37,3585,-12517,-15216,16384,0
669,55987,55997,69,62,926,799,41,26,-41,3675,-12649,-14929,-16384,0
670,56108,56118,80,63,920,447,34,32,-40,3298,-12440,-14815,-32768,0
672,56233,56243,79,62,928,511,38,33,-43,3627,-12637,-14629,0,0
673,56355,56365,71,68,913,-191,35,26,-45,3454,-12517,-14600,16384,0
675,56480,56490,72,65,920,223,36,27,-42,3585,-12392,-14929,-32768,0
676,56601,56611,76,57,928,303,35,27,-37,3340,-12236,-14683,-32768,0
678,56726,56736,74,63,920,-95,45,29,-43,3699,-12428,-14773,16384,0
679,56847,56857,88,59,929,703,40,30,-41,3478,-12499,-14953,0,0
681,56969,56979,74,67,922,687,37,30,-40,3621,-12326,-15090,0,0
682,57090,57100,80,63,930,527,40,27,-38,3550,-12332,-14941,16384,0
684,57223,57233,82,60,920,735,37,29,-37,3526,-12308,-15019,-32768,0
685,57344,57354,80,58,915,111,32,32,-40,3627,-12326,-14965,0,0
687,57469,57479,76,56,930,111,33,29,-40,3508,-12338,-15264,0,0
688,57590,57600,82,61,930,159,33,25,-38,3526,-12260,-14743,-32768,0
690,57715,57725,69,63,922,79,33,29,-35,3603,-12260,-14749,-16384,0
691,57837,57847,82,63,925,95,33,22,-41,3328,-12284,-15084,0,0
693,57960,57969,73,63,926,-207,45,27,-40,3376,-12320,-15108,0,0
694,58084,58094,74,65,926,527,34,30,-45,3388,-12529,-14929,-32768,0
696,58206,58216,81,56,920,607,37,28,-40,3394,-12499,-14971,-16384,0
697,58328,58338,84,52,928,63,37,28,-40,3538,-12565,-14989,0,0
699,58461,58471,82,58,931,223,44,30,-36,3412,-12368,-14893,-16384,0
700,58582,58592,79,63,912,-191,33,25,-40,3544,-12505,-15066,16384,0
702,58707,58717,82,65,916,655,34,22,-40,3478,-12410,-14941,16384,0
703,58828,58838,81,68,922,527,34,34,-35,3669,-12691,-15114,16384,0
705,58950,58960,78,65,933,-79,30,30,-43,3418,-12224,-15054,16384,0
706,59075,59085,77,57,928,-95,32,27,-42,3544,-12464,-14857,-32768,0
708,59197,59207,80,58,922,319,38,32,-33,3556,-12398,-15102,0,0
709,59319,59329,84,54,918,-63,33,28,-38,3556,-12535,-14953,16384,0
711,59444,59453,82,63,923,127,42,25,-40,3400,-12254,-14839,16384,0
712,59565,59575,80,58,923,623,38,29,-37,3388,-12595,-15210,16384,0
714,59690,59700,79,69,923,415,33,22,-41,3442,-12667,-15060,-32768,0
715,59811,59821,76,65,918,399,34,25,-37,3502,-12577,-14947,-32768,0
717,59943,59953,82,65,937,15,40,34,-37,3556,-12505,-15037,-32768,0
718,60064,60074,85,56,926,-79,35,25,-35,3514,-12619,-14935,16384,0
720,60186,60196,80,65,923,255,36,28,-38,3561,-12505,-14791,0,0
721,60307,60317,80,65,930,143,33,25,-37,3460,-12392,-15078,0,0
723,60432,60441,71,61,923,127,38,36,-40,3454,-12344,-14641,0,0
724,60553,60563,78,63,917,0,37,35,-40,3472,-12493,-14839,16384,0
726,60678,60688,81,64,922,367,38,28,-41,3544,-12350,-15001,16384,0
727,60799,60809,78,58,923,287,30,32,-40,3502,-12434,-15019,16384,0
729,60924,60933,73,62,922,47,37,33,-42,3364,-12481,-14839,-32768,0
730,61045,61055,86,68,927,143,36,29,-36,3430,-12715,-15001,16384,0
732,61175,61185,81,67,927,319,38,30,-42,3346,-12290,-14947,-16384,0
733,61296,61306,78,72,918,223,34,25,-40,3550,-12595,-14881,16384,0
735,61421,61431,69,62,922,559,41,27,-38,3466,-12458,-15025,16384,0
736,61542,61552,78,56,923,287,33,36,-41,3178,-12410,-15084,16384,0
738,61667,61677,76,60,917,159,35,30,-38,3544,-12565,-14629,-32768,0
739,61788,61798,70,59,924,399,34,27,-45,3544,-12511,-14564,16384,0
741,61913,61923,80,64,918,287,38,29,-36,3346,-12511,-14881,16384,0
742,62034,62044,83,63,925,-63,35,32,-38,3472,-12434,-15001,0,0
744,62156,62166,73,60,924,255,42,24,-36,3244,-12446,-15054,16384,0
745,62277,62287,77,58,926,271,35,32,-42,3603,-12559,-15102,16384,0
747,62404,62414,79,53,920,0,33,26,-40,3508,-12416,-14827,16384,0
748,62525,62535,74,68,923,175,38,29,-38,3585,-12511,-15114,16384,0
750,62658,62668,75,63,924,79,32,26,-36,3454,-12290,-14749,16384,0
751,62779,62789,77,65,915,-31,36,29,-44,3621,-12523,-14857,0,0
753,62904,62913,82,55,925,431,33,33,-40,3520,-12320,-14683,0,0
754,63025,63035,81,59,924,287,36,28,-42,3418,-12619,-14905,-32768,0
756,63148,63157,71,63,920,-63,36,32,-40,3280,-12146,-15031,0,0
757,63269,63279,82,69,915,303,38,34,-41,3412,-12416,-15013,-32768,0
759,63394,63404,79,61,914,47,41,30,-34,3579,-12458,-15019,0,0
760,63515,63525,75,67,929,319,38,33,-43,3502,-12230,-14821,-32768,0
762,63640,63650,76,50,933,319,40,29,-34,3424,-12254,-14420,-32768,0
763,63762,63772,80,62,913,127,37,28,-36,3454,-12224,-14486,-32768,0
765,63895,63904,80,57,932,495,28,32,-37,3627,-12559,-14605,-32768,0
766,64016,64026,91,60,924,303,40,26,-34,3352,-12464,-14629,0,0
768,64138,64148,80,58,922,15,30,33,-38,3669,-12332,-15013,0,0
769,64263,64273,81,65,922,-159,38,30,-41,3591,-12266,-14665,16384,0
771,64385,64395,75,56,921,655,33,33,-42,3442,-12386,-14665,0,0
772,64506,64516,80,61,924,15,40,29,-35,3597,-12362,-14552,-32768,0
774,64631,64641,70,65,928,591,43,27,-41,3567,-12350,-14647,-32768,0
775,64753,64763,80,66,917,175,37,30,-40,3561,-12511,-14456,16384,0
777,64878,64888,81,62,922,47,36,32,-40,3705,-12326,-14420,16384,0
778,64999,65009,77,69,918,303,37,27,-36,3633,-12410,-14600,-32768,0
780,65122,65131,75,67,920,-191,35,27,-36,3621,-12218,-14605,0,0
781,65246,65256,71,60,928,223,35,36,-35,3424,-12446,-14647,-32768,0
783,65376,65386,80,66,925,-47,30,28,-36,3430,-12452,-14857,16384,0
784,65497,65507,82,56,928,-191,40,30,-37,3627,-12499,-14576,-32768,0
786,65622,65632,74,56,920,223,37,33,-37,3573,-12416,-14570,-16384,0
787,65743,65753,78,63,923,143,36,30,-38,3424,-12302,-14576,-32768,0
789,65868,65878,75,62,922,351,37,35,-42,3609,-12362,-14701,-16384,0
790,65990,66000,80,59,918,191,38,30,-38,3484,-12236,-14516,0,0
792,66115,66125,71,67,911,447,30,32,-38,3585,-12547,-14929,16384,0
793,66236,66246,78,63,926,-239,36,33,-42,3615,-12481,-14306,-32768,0
795,66358,66368,72,63,923,319,33,28,-38,3370,-12434,-14504,0,0
796,66479,66489,72,62,919,143,37,32,-38,3609,-12404,-14719,16384,0
798,66612,66622,74,67,922,543,34,33,-36,3711,-12475,-14647,-32768,0
799,66733,66743,80,54,924,735,37,30,-38,3430,-12428,-14773,16384,0
801,66858,66868,80,67,923,367,40,34,-44,3400,-12350,-14815,-16384,0
802,66979,66989,78,69,917,463,37,34,-37,3442,-12314,-15156,0,0
804,67104,67114,78,65,922,447,35,33,-43,3460,-12469,-14588,16384,0
805,67225,67235,80,57,920,447,41,30,-40,3496,-12493,-14821,16384,0
807,67347,67357,79,59,917,-95,37,32,-38,3496,-12338,-15001,0,0
808,67468,67478,73,59,922,-159,29,26,-36,3915,-12446,-14989,-16384,0
810,67593,67603,87,58,925,431,36,30,-41,3597,-12481,-14725,16384,0
811,67715,67725,86,63,928,479,36,28,-41,3573,-12452,-14827,16384,0
813,67840,67850,78,63,922,351,37,26,-40,3645,-12434,-14552,0,0
814,67961,67971,80,63,924,415,34,34,-37,3603,-12505,-14851,16384,0
816,68095,68105,74,63,920,175,40,33,-43,3603,-12523,-14779,0,0
817,68216,68226,75,58,927,911,30,27,-36,3526,-12499,-14683,16384,0
819,68338,68348,82,68,933,-191,38,28,-34,3717,-12434,-14282,16384,0
820,68459,68469,74,61,928,399,42,29,-42,3460,-12308,-14354,16384,0
822,68584,68594,76,66,929,527,35,29,-36,3418,-12404,-14791,16384,0
823,68705,68715,82,60,930,223,35,28,-37,3520,-12332,-14737,16384,0
825,68830,68840,80,57,923,-191,38,29,-45,3550,-12314,-14719,-16384,0
826,68951,68961,75,61,920,847,36,30,-43,3538,-12248,-14629,16384,0
828,69076,69086,85,59,922,591,36,30,-37,3615,-12236,-14594,16384,0
829,69197,69207,81,65,926,-191,30,28,-37,3466,-12236,-14803,-32768,0
831,69319,69329,68,60,917,671,37,32,-42,3394,-12182,-14779,0,0
832,69441,69451,77,62,920,0,41,29,-36,3633,-12374,-14749,16384,0
834,69574,69584,75,59,924,415,36,32,-36,3430,-12380,-14474,16384,0
835,69695,69705,78,65,921,47,42,27,-37,3334,-12493,-14390,-32768,0
837,69820,69830,82,63,915,79,37,28,-45,3436,-12356,-14438,16384,0
838,69941,69951,86,60,922,463,35,27,-43,3292,-12440,-14582,-32768,0
840,70066,70076,74,67,921,255,35,29,-42,3346,-12206,-14839,0,0
841,70187,70197,71,66,922,-47,35,30,-40,3442,-12452,-14953,-32768,0
843,70310,70319,76,53,933,655,37,29,-42,3358,-12529,-15007,16384,0
844,70434,70444,73,58,939,175,33,27,-43,3298,-12595,-14809,16384,0
846,70570,70580,76,60,912,303,37,29,-42,3298,-12380,-14947,-32768,0
847,70691,70701,80,59,920,63,37,29,-42,3310,-12356,-14588,-32768,0
849,70850,70860,73,61,920,255,35,30,-37,3340,-12320,-14570,0,0
850,70972,70982,76,74,927,175,38,33,-45,3460,-12529,-14725,-32768,0
852,71097,71107,74,59,919,-15,43,35,-41,3400,-12338,-14977,-32768,0
853,71218,71228,75,61,921,175,35,26,-36,3436,-12248,-14851,0,0
855,71341,71350,77,58,920,-111,42,29,-37,3364,-12140,-14707,-16384,0
856,71465,71475,75,55,920,63,38,32,-37,3340,-12284,-14689,-32768,0
858,71587,71597,79,66,920,31,41,29,-42,3478,-12416,-14707,-32768,0
859,71708,71718,78,69,921,447,37,29,-43,3310,-12314,-14767,-32768,0
861,71833,71843,81,63,918,367,35,25,-37,3532,-12284,-14641,0,0
862,71955,71965,90,57,920,207,38,32,-37,3448,-12200,-14677,-32768,0
864,72080,72090,75,67,911,0,37,27,-42,3466,-12248,-14647,-32768,0
865,72201,72211,80,64,927,239,42,30,-40,3579,-12356,-14953,16384,0
867,72334,72344,71,64,926,287,34,27,-41,3364,-12434,-14935,16384,0
868,72455,72465,88,64,926,511,35,30,-35,3430,-12422,-14977,-32768,0
870,72577,72587,79,64,917,351,40,33,-40,3352,-12302,-14911,-16384,0
871,72698,72708,76,67,919,527,42,29,-41,3544,-12326,-14695,-32768,0
873,72823,72833,78,56,923,47,34,29,-38,3460,-12374,-14659,0,0
874,72945,72955,84,60,922,-271,44,33,-36,3556,-12194,-14827,16384,0
876,73070,73080,76,63,928,223,36,27,-40,3532,-12362,-14815,0,0
877,73191,73201,89,63,920,31,33,34,-36,3597,-12320,-14647,16384,0
879,73316,73326,84,66,915,-79,33,29,-41,3442,-12338,-14875,-32768,0
880,73437,73447,89,62,917,351,36,29,-37,3502,-12176,-14719,16384,0
882,73567,73577,79,67,924,383,34,32,-46,3418,-12266,-14821,16384,0
883,73688,73698,77,67,916,0,35,33,-38,3430,-12314,-15132,-32768,0
885,73813,73823,77,59,922,223,36,25,-40,3585,-12188,-14929,16384,0
886,73934,73944,82,62,926,15,36,28,-36,3406,-12021,-14641,-32768,0
888,74059,74069,80,59,925,159,36,34,-38,3466,-12266,-14875,-32768,0
889,74180,74190,86,60,926,559,37,25,-43,3496,-12380,-14785,-16384,0
891,74305,74315,78,65,923,271,36,35,-37,3520,-12188,-14965,-32768,0
892,74426,74436,76,58,928,31,37,28,-41,3532,-12398,-14851,16384,0
894,74548,74558,76,60,926,239,36,29,-42,3418,-12302,-14887,-16384,0
895,74669,74679,84,62,923,703,35,29,-43,3556,-12458,-14815,-32768,0
897,74794,74804,71,59,915,543,40,33,-40,3346,-12434,-14815,16384,0
898,74916,74926,73,61,928,239,36,25,-40,3400,-12326,-15114,-16384,0
900,75049,75059,82,57,923,303,35,33,-42,3591,-12236,-14863,-16384,0
901,75170,75180,71,62,935,175,34,28,-40,3639,-12392,-15013,-32768,0
903,75295,75305,82,63,922,-31,34,30,-41,3388,-12452,-14881,16384,0
904,75417,75427,80,63,917,527,37,27,-41,3579,-12452,-15007,-32768,0
906,75539,75549,78,67,924,-191,36,33,-41,3573,-12499,-14821,-32768,0
907,75661,75671,80,60,927,191,29,34,-37,3807,-12386,-15019,-16384,0
909,75786,75796,89,65,927,0,41,28,-37,3627,-12428,-15037,-32768,0
910,75908,75918,78,63,935,319,36,29,-44,3591,-12368,-15060,-16384,0
912,76033,76043,76,56,920,239,30,24,-41,3669,-12404,-14635,-32768,0
913,76154,76164,82,62,922,0,29,29,-42,3424,-12206,-14588,-32768,0
915,76287,76297,74,68,914,591,42,29,-40,3520,-12344,-14761,0,0
916,76408,76418,80,63,926,543,40,29,-43,3484,-12380,-14683,-16384,0
918,76530,76540,71,60,931,255,37,33,-38,3532,-12122,-14845,16384,0
919,76655,76665,76,60,926,527,36,28,-37,3585,-12290,-14953,-16384,0
921,76777,76787,72,65,915,47,33,29,-38,3418,-12362,-14785,-16384,0
922,76899,76909,75,70,926,79,43,35,-42,3675,-12362,-14803,-16384,0
924,77024,77034,78,68,920,79,33,24,-36,3663,-12230,-14953,-32768,0
925,77145,77155,70,61,930,-79,36,30,-38,3550,-12278,-14995,-32768,0
927,77270,77280,83,65,924,127,38,32,-40,3759,-12338,-15252,-32768,0
928,77392,77402,85,65,920,271,34,24,-37,3550,-12272,-15019,-16384,0
930,77514,77524,78,67,928,-335,38,32,-42,3496,-12260,-14935,-16384,0
931,77639,77649,81,59,915,-191,33,22,-37,3388,-12410,-14779,-16384,0
933,77769,77779,71,58,922,367,35,29,-41,3454,-12332,-14947,0,0
934,77890,77900,82,55,915,-223,34,30,-40,3448,-11961,-14582,-32768,0
936,78015,78025,75,65,917,335,36,29,-41,3508,-12236,-14869,-32768,0
937,78136,78146,84,61,917,255,33,29,-35,3394,-12146,-14558,-32768,0
939,78262,78271,72,68,924,575,41,33,-40,3418,-12362,-14803,0,0
940,78383,78393,87,56,916,351,38,25,-37,3508,-12314,-14827,-32768,0
942,78508,78518,81,64,926,319,37,29,-43,3454,-12428,-14899,-16384,0
943,78629,78639,80,63,928,223,36,36,-40,3496,-12254,-14869,-32768,0
945,78751,78761,83,63,921,639,40,27,-40,3490,-12422,-14647,-32768,0
946,78873,78883,84,61,936,-175,40,33,-43,3430,-12446,-14971,-32768,0
948,79008,79018,78,61,934,607,35,29,-42,3316,-12332,-14576,-16384,0
949,79130,79140,83,65,918,447,28,28,-36,3196,-12386,-14564,-32768,0
951,79255,79265,82,65,922,463,41,32,-42,3382,-12230,-14456,-32768,0
952,79377,79387,80,57,923,351,33,26,-36,3430,-12428,-14965,-32768,0
954,79502,79512,79,70,922,-31,36,28,-44,3424,-12230,-14611,16384,0
955,79623,79633,76,65,926,143,35,34,-45,3550,-12320,-14719,0,0
957,79745,79755,75,62,921,303,36,26,-42,3292,-12332,-14755,16384,0
958,79867,79877,82,60,924,383,29,28,-41,3286,-12248,-14923,-16384,0
960,79992,80002,82,62,923,623,42,27,-38,3561,-12380,-14707,-16384,0
961,80114,80124,79,63,920,255,35,32,-41,3304,-12326,-14468,-16384,0
963,80239,80249,78,60,922,95,35,32,-36,3322,-12266,-14845,0,0
964,80361,80371,68,60,919,463,37,25,-37,3346,-12266,-14959,0,0
966,80498,80507,79,65,926,15,37,34,-40,3448,-12464,-14617,0,0
967,80619,80629,77,67,922,335,33,34,-38,3376,-12356,-14641,-32768,0
969,80762,80772,80,61,928,383,36,32,-40,3430,-12440,-14923,16384,0
970,80883,80893,84,57,924,-255,37,32,-38,3520,-12428,-14749,-16384,0
972,81009,81019,76,53,928,655,36,33,-37,3478,-12296,-14647,-32768,0
973,81130,81140,69,67,916,175,37,29,-42,3424,-12440,-14965,-32768,0
975,81254,81264,84,56,921,-15,40,29,-40,3310,-12230,-14594,0,0
976,81376,81386,81,59,928,527,40,29,-35,3406,-12362,-14564,-16384,0
978,81500,81510,73,60,928,223,45,28,-41,3352,-12134,-14474,-32768,0
979,81621,81631,84,62,922,127,43,26,-44,3190,-12009,-14917,0,0
981,81743,81752,78,64,922,0,35,29,-38,3400,-12278,-14755,-32768,0
982,81864,81874,75,60,922,255,44,25,-41,3220,-12242,-15025,-16384,0
984,81996,82005,80,61,925,255,37,33,-35,3376,-12278,-14498,0,0
985,82117,82127,78,66,926,207,34,33,-38,3418,-12464,-14755,-32768,0
987,82241,82251,75,63,923,319,38,30,-45,3244,-12398,-14767,-32768,0
988,82362,82372,73,65,926,31,34,30,-38,3286,-12188,-14815,-16384,0
990,82486,82496,81,56,920,287,40,33,-43,3508,-12248,-15001,-32768,0
991,82607,82617,77,61,916,207,38,33,-37,3304,-12350,-15150,-16384,0
993,82729,82738,73,63,926,127,29,27,-38,3442,-12481,-14773,-16384,0
994,82853,82863,76,59,927,191,37,27,-40,3490,-12428,-14791,-16384,0
996,82974,82984,75,70,924,-255,40,30,-42,3352,-12613,-14815,-32768,0
997,83095,83105,71,55,933,-79,30,28,-34,3400,-12529,-14935,-16384,0
999,83226,83236,76,67,913,159,35,28,-38,3148,-12398,-15138,-16384,0
1000,83348,83358,75,57,916,447,42,28,-40,3334,-12398,-14665,-32768,0
1002,83472,83482,78,55,921,575,40,32,-42,3424,-12464,-14815,-16384,0
1003,83593,83603,79,57,941,559,37,28,-36,3436,-12338,-14779,0,0
1005,83714,83724,72,60,924,175,37,27,-37,3460,-12541,-14767,-32768,0
1006,83838,83848,71,67,918,-127,35,32,-36,3472,-12356,-14977,-16384,0
1008,83959,83969,82,61,924,-79,40,34,-43,3430,-12392,-14605,16384,0
1009,84081,84091,75,63,917,0,42,28,-40,3418,-12481,-14827,-16384,0
1011,84205,84215,85,58,919,655,34,30,-36,3508,-12326,-14683,16384,0
1012,84326,84336,77,61,925,559,35,27,-44,3382,-12368,-14725,0,0
1014,84450,84460,87,69,933,207,35,29,-43,3484,-12260,-14989,16384,0
1015,84571,84581,70,60,915,511,42,28,-37,3340,-12601,-14623,-16384,0
1017,84703,84712,80,63,934,447,36,25,-35,3286,-12338,-14414,16384,0
1018,84824,84834,72,63,926,175,35,27,-37,3208,-12523,-14540,-32768,0
1020,84945,84955,88,60,924,-111,35,26,-38,3280,-12230,-14611,-32768,0
1021,85067,85077,83,56,921,255,40,32,-40,3502,-12422,-14516,-16384,0
1023,85191,85201,77,56,922,383,36,32,-44,3370,-12272,-14683,-32768,0
1024,85312,85322,75,66,927,111,38,29,-37,3394,-12469,-14833,-16384,0
1026,85436,85446,76,61,920,223,35,26,-41,3334,-12350,-14953,0,0
1027,85558,85568,85,59,920,335,35,29,-40,3244,-12452,-14504,0,0
1029,85682,85692,79,59,924,271,34,29,-38,3394,-12200,-14683,-16384,0
1030,85804,85814,80,61,925,351,38,28,-41,3591,-12338,-14827,0,0
1032,85933,85943,78,66,930,95,33,33,-42,3514,-12218,-14803,16384,0
1033,86054,86064,78,57,921,127,36,32,-40,3388,-12176,-14755,0,0
1035,86178,86188,68,62,916,159,40,25,-40,3370,-12266,-14869,-32768,0
1036,86300,86310,82,63,926,207,35,28,-40,3508,-12481,-14857,-16384,0
0,889,899,78,61,926,15,36,29,-34,3406,-12583,-14420,0,0
1,909,918,78,67,913,-223,40,25,-38,3514,-12595,-14689,0,0
2,928,938,78,65,930,63,36,33,-35,3561,-12577,-14647,0,0
3,947,957,76,60,935,319,45,36,-40,3717,-12446,-14947,-16384,0
4,967,976,74,65,915,287,37,30,-40,3472,-12595,-14977,0,0
5,986,996,71,63,926,79,36,28,-37,3532,-12517,-14815,0,0
6,1006,1015,80,66,933,95,42,35,-37,3561,-12733,-14971,0,0
7,1025,1035,84,67,928,271,40,33,-42,3561,-12440,-14797,-16384,0
8,1045,1054,76,63,928,335,37,28,-37,3370,-12541,-14408,16384,0
9,1067,1077,80,59,923,527,35,30,-40,3394,-12631,-14683,0,0
10,1086,1096,66,60,924,623,40,26,-38,3376,-12565,-14510,0,0
11,1106,1116,79,66,923,351,41,27,-37,3322,-12428,-14576,0,0
12,1125,1135,78,58,926,63,36,32,-36,3334,-12458,-14743,16384,0
0,1089,1099,77,66,922,-63,41,35,-37,3262,-12272,-14605,0,0
1,1108,1118,78,60,921,463,40,34,-44,3322,-12308,-14665,0,0
2,1128,1138,87,62,926,-495,33,27,-35,3340,-12404,-14665,-32768,0
3,1147,1157,80,63,929,623,34,33,-38,3442,-12368,-14701,-16384,0
4,1167,1177,76,63,924,303,35,29,-37,3316,-12236,-14785,16384,0
5,1186,1196,83,54,922,463,36,29,-38,3490,-12128,-14462,0,0
6,1205,1215,76,59,926,655,41,30,-41,3603,-12254,-14426,-16384,0
7,1225,1235,78,57,919,-303,30,26,-40,3364,-12446,-14414,0,0
8,1245,1254,78,58,927,111,32,29,-41,3148,-12296,-14570,-16384,0
9,1266,1276,69,67,928,47,33,30,-41,3310,-12272,-14486,-32768,0
10,1286,1295,71,58,930,623,35,29,-40,3520,-12320,-14815,-16384,0
11,1305,1315,76,63,923,-79,35,29,-42,3262,-12296,-14671,-16384,0
12,1324,1334,68,59,920,-367,35,29,-36,3268,-12374,-14845,0,0
13,1343,1353,81,63,919,303,36,30,-40,3376,-12374,-14641,0,0
14,1363,1372,76,58,916,271,35,32,-41,3304,-12458,-14851,0,0
15,1382,1392,79,63,925,191,43,33,-37,3460,-12422,-14695,0,0
16,1402,1411,80,66,928,0,36,29,-42,3400,-12481,-14600,-16384,0
17,1421,1431,80,63,922,303,37,35,-41,3310,-12362,-14576,0,0
18,1440,1450,76,60,920,527,36,35,-41,3406,-12248,-14623,0,0
19,1462,1472,76,64,923,63,40,28,-35,3472,-12272,-14773,0,0
20,1482,1491,80,66,919,15,38,28,-38,3424,-12422,-14671,16384,0
21,1501,1511,82,72,935,-79,38,28,-46,3585,-12356,-14510,-16384,0
22,1523,1533,78,62,924,95,38,29,-36,3442,-12314,-14294,-16384,0
23,1543,1552,80,63,927,255,36,30,-42,3364,-12374,-14719,-16384,0
24,1562,1572,75,53,917,0,44,30,-38,3334,-12224,-14450,16384,0
25,1581,1591,90,64,923,159,38,27,-40,3538,-12278,-14665,16384,0
26,1600,1610,86,60,926,-143,42,30,-36,3490,-12350,-14923,-16384,0
27,1620,1630,76,67,913,239,44,30,-42,3502,-12362,-14773,16384,0
28,1639,1649,80,63,930,0,40,25,-38,3567,-12499,-14623,0,0
29,1658,1668,76,60,921,271,41,29,-37,3573,-12505,-14605,0,0
30,1678,1687,76,57,917,479,35,30,-41,3460,-12631,-14474,0,0
31,1697,1707,75,68,920,255,40,26,-38,3376,-12571,-14671,0,0
32,1716,1726,76,61,928,-63,41,32,-42,3472,-12481,-14414,16384,0
33,1736,1745,73,59,930,335,35,29,-40,3454,-12356,-14540,0,0
34,1755,1765,84,60,924,15,37,27,-36,3334,-12326,-14288,0,0
35,1777,1787,75,54,915,159,36,34,-36,3442,-12517,-14420,-16384,0
36,1797,1806,83,57,921,367,30,30,-38,3400,-12332,-14324,-16384,0
37,1816,1826,76,63,921,63,40,34,-38,3322,-12398,-14617,0,0
38,1836,1845,87,62,921,831,36,30,-35,3400,-12505,-14665,0,0
39,1855,1865,82,57,926,143,34,34,-37,3532,-12541,-14611,-16384,0
40,1874,1884,71,60,926,-143,38,27,-41,3741,-12428,-14683,-16384,0
41,1894,1904,82,65,930,399,33,30,-34,3663,-12493,-14647,0,0
42,1913,1923,82,60,922,335,38,35,-38,3472,-12422,-14588,0,0
43,1933,1942,78,65,920,-143,36,29,-38,3681,-12290,-14204,0,0
44,1952,1962,74,65,924,463,37,29,-41,3621,-12230,-14426,-32768,0
45,1972,1981,78,71,924,447,37,37,-37,3526,-12529,-14659,-16384,0
46,1991,2001,71,67,925,447,41,35,-41,3520,-12218,-14366,0,0
47,2011,2021,84,66,931,-15,34,25,-35,3466,-12422,-14324,-32768,0
48,2030,2040,85,71,910,351,38,32,-37,3454,-12535,-14528,-16384,0
49,2048,2058,83,54,922,447,37,30,-42,3436,-12302,-14336,16384,0
50,2068,2077,59,45,922,351,34,29,-35,3394,-12499,-14450,16384,0
51,2087,2097,82,54,924,-191,34,34,-35,3394,-12469,-14402,-16384,0
52,2107,2116,81,70,926,95,35,30,-32,3567,-12434,-14342,0,0
53,2126,2136,71,77,922,207,41,29,-40,3496,-12589,-14390,0,0
54,2146,2155,81,70,920,207,38,30,-42,3316,-12475,-14504,0,0
55,2165,2175,71,63,929,63,36,27,-44,3424,-12422,-14665,16384,0
56,2185,2195,79,64,922,575,36,30,-38,3394,-12404,-14516,0,0
57,2204,2214,76,61,924,-271,37,30,-35,3430,-12607,-14629,0,0
58,2224,2234,79,63,909,111,32,34,-38,3550,-12601,-14641,16384,0
59,2244,2253,76,59,921,431,36,30,-41,3484,-12284,-14264,0,0
60,2263,2273,82,54,926,255,38,28,-43,3609,-12469,-14468,0,0
61,2283,2292,75,64,930,735,35,32,-38,3466,-12422,-14420,-16384,0
62,2305,2315,85,50,920,-383,34,25,-38,3544,-12434,-14270,-16384,0
63,2325,2334,72,58,925,1023,34,29,-36,3603,-12440,-14414,-32768,0
64,2344,2354,84,64,917,0,37,27,-36,3579,-12416,-14719,0,0
65,2364,2374,84,59,920,367,34,27,-38,3526,-12242,-14456,-16384,0
66,2383,2393,81,63,919,607,37,30,-37,3496,-12446,-14426,0,0
67,2403,2413,87,61,937,335,32,30,-40,3442,-12553,-14689,0,0
68,2423,2432,65,63,924,383,32,33,-44,3597,-12733,-14875,0,0
69,2442,2452,76,59,923,95,40,30,-36,3520,-12529,-14851,-16384,0
70,2462,2471,77,63,915,-79,36,28,-41,3579,-12386,-14378,-16384,0
71,2481,2491,80,58,928,-47,34,29,-41,3579,-12541,-14162,0,0
72,2501,2510,82,54,915,79,38,30,-41,3442,-12529,-14665,16384,0
73,2520,2530,87,69,922,319,37,26,-37,3418,-12649,-14893,0,0
74,2540,2549,71,56,915,223,41,28,-41,3603,-12655,-14893,-16384,0
75,2562,2572,82,65,924,335,40,32,-36,3496,-12398,-14779,-16384,0
76,2582,2591,82,60,928,239,34,29,-38,3424,-12392,-14767,16384,0
77,2601,2611,76,60,919,383,37,29,-38,3400,-12410,-14707,0,0
78,2621,2631,73,58,921,239,37,30,-45,3376,-12338,-14725,0,0
79,2640,2650,76,56,916,463,33,28,-43,3388,-12553,-14671,0,0
80,2660,2670,80,55,933,303,38,32,-41,3526,-12428,-14755,16384,0
81,2680,2689,74,63,923,31,35,30,-40,3340,-12523,-14522,16384,0
82,2699,2709,87,63,929,271,33,30,-40,3322,-12320,-14570,0,0
83,2719,2728,66,58,931,767,41,30,-35,3310,-12320,-14516,0,0
84,2738,2748,81,56,918,447,33,32,-40,3310,-12386,-14246,-32768,0
85,2758,2768,70,52,927,159,34,29,-42,3328,-12362,-14653,-16384,0
86,2777,2787,75,69,926,15,38,30,-40,3370,-12278,-14522,16384,0
87,2797,2807,82,63,928,575,38,29,-41,3412,-12146,-14695,0,0
88,2820,2829,80,60,918,527,38,30,-41,3262,-12499,-14863,0,0
89,2839,2849,80,63,914,415,36,29,-45,3286,-12404,-14564,0,0
90,2859,2868,73,57,924,-63,40,27,-37,3244,-12547,-14522,-32768,0
91,2878,2888,81,61,926,655,33,27,-42,3394,-12434,-14659,0,0
92,2898,2907,83,63,922,191,40,30,-38,3400,-12499,-14803,-16384,0
93,2917,2927,71,65,928,463,40,28,-38,3190,-12523,-14917,-16384,0
94,2937,2947,75,63,920,-159,33,27,-37,3220,-12469,-14929,-16384,0
95,2956,2966,79,62,917,591,34,38,-41,3334,-12422,-14635,0,0
96,2976,2986,84,59,930,143,35,29,-35,3238,-12434,-14570,16384,0
97,2996,3005,69,64,925,543,42,26,-40,3334,-12607,-14779,0,0
98,3015,3025,80,62,924,351,36,25,-35,3322,-12619,-14779,-16384,0
99,3035,3044,80,64,920,207,43,33,-41,3394,-12631,-14701,16384,0
100,3054,3064,75,61,924,383,36,25,-36,3286,-12535,-14558,-16384,0
101,3077,3086,81,62,929,127,40,33,-40,3358,-12398,-14570,-16384,0
102,3096,3106,81,56,935,271,33,32,-42,3214,-12571,-14857,0,0
103,3116,3126,85,64,928,31,38,26,-37,3280,-12679,-14833,16384,0
104,3136,3145,86,61,925,-127,41,29,-35,3166,-12565,-14815,-32768,0
105,3155,3165,89,64,928,-79,41,32,-38,3172,-12559,-14719,0,0
106,3175,3184,71,56,922,-143,41,27,-41,3292,-12529,-14767,-16384,0
107,3194,3204,83,64,926,383,36,33,-41,3442,-12517,-14785,16384,0
108,3214,3223,78,71,922,303,38,27,-37,3394,-12404,-14402,-16384,0
109,3233,3243,76,60,934,591,40,30,-37,3532,-12440,-14797,0,0
110,3253,3263,82,60,920,159,34,28,-38,3328,-12595,-14839,-16384,0
111,3272,3282,82,60,928,111,35,26,-41,3532,-12541,-14791,-16384,0
112,3292,3302,71,73,922,-319,35,30,-38,3298,-12499,-14887,-32768,0
113,3312,3321,73,58,922,415,36,27,-42,3280,-12541,-14749,16384,0
114,3334,3344,81,61,925,623,36,29,-38,3400,-12715,-14701,16384,0
115,3354,3363,73,59,924,351,35,30,-36,3340,-12577,-14653,-16384,0
116,3373,3383,77,64,924,383,38,32,-42,3334,-12475,-14719,0,0
117,3392,3402,81,68,920,639,34,29,-41,3286,-12619,-14761,-16384,0
118,3412,3422,71,63,928,479,33,27,-41,3484,-12511,-14845,0,0
119,3431,3441,73,61,926,-127,42,30,-42,3502,-12452,-14755,0,0
120,3451,3460,78,60,924,223,41,34,-38,3639,-12392,-14713,0,0
121,3470,3480,75,61,920,415,35,30,-40,3579,-12559,-14671,-32768,0
122,3489,3499,72,65,932,-223,35,36,-42,3550,-12523,-14713,16384,0
123,3509,3519,78,69,932,319,36,29,-37,3460,-12505,-14833,0,0
124,3528,3538,81,59,924,319,38,26,-41,3400,-12565,-14905,0,0
125,3548,3557,78,58,918,319,34,28,-37,3550,-12565,-14869,0,0
126,3567,3577,81,61,919,-239,33,29,-43,3394,-12643,-14737,-16384,0
127,3589,3599,73,63,917,559,33,32,-37,3460,-12523,-15156,-32768,0
128,3609,3618,82,65,922,271,35,27,-37,3496,-12535,-15066,0,0
129,3628,3638,81,63,926,143,37,30,-34,3550,-12631,-14851,16384,0
130,3648,3657,73,57,928,287,38,26,-42,3382,-12529,-14947,0,0
131,3667,3677,77,62,909,0,42,30,-42,3526,-12499,-14815,0,0
132,3686,3696,80,63,923,447,36,30,-40,3508,-12565,-14749,0,0
133,3706,3716,67,59,920,-143,36,29,-41,3430,-12685,-14689,-16384,0
134,3725,3735,76,67,932,127,36,30,-36,3526,-12505,-14665,16384,0
135,3745,3754,84,59,926,79,41,27,-37,3591,-12649,-14953,0,0
136,3764,3774,77,57,930,-175,34,34,-38,3532,-12685,-14731,0,0
137,3784,3793,79,63,920,-239,36,29,-38,3502,-12655,-14875,16384,0
138,3803,3813,79,63,919,287,38,34,-35,3466,-12493,-14725,-16384,0
139,3822,3832,83,58,926,223,40,27,-38,3514,-12535,-14348,-16384,0
140,3847,3857,71,67,923,463,36,36,-42,3526,-12505,-14749,0,0
141,3866,3876,81,60,932,543,35,32,-43,3442,-12487,-14839,-32768,0
142,3886,3896,77,69,914,703,43,33,-36,3573,-12559,-14468,0,0
143,3906,3915,81,63,917,543,34,32,-41,3400,-12673,-14450,0,0
144,3925,3935,72,57,926,79,30,25,-44,3603,-12655,-14516,16384,0
145,3945,3955,79,56,930,799,36,29,-36,3544,-12565,-14456,-16384,0
146,3965,3974,86,60,913,79,33,32,-42,3573,-12553,-14402,0,0
147,3984,3994,82,65,922,15,38,33,-40,3532,-12452,-14462,-16384,0
148,4004,4013,74,65,922,-399,41,26,-36,3514,-12631,-14109,-16384,0
149,4023,4033,88,57,926,-335,35,29,-36,3358,-12529,-14139,0,0
150,4043,4053,77,64,917,-143,36,25,-44,3550,-12416,-14204,0,0
151,4062,4072,80,65,938,463,42,25,-41,3508,-12595,-14522,0,0
152,4082,4092,76,52,924,335,35,29,-35,3454,-12475,-14510,0,0
153,4102,4111,65,67,924,303,35,28,-34,3478,-12607,-14306,0,0
154,4124,4134,76,58,915,479,35,27,-38,3412,-12865,-14522,-16384,0
155,4144,4153,81,63,932,383,37,30,-40,3388,-12655,-14552,-16384,0
156,4163,4173,70,67,927,79,42,35,-38,3466,-12763,-14384,-16384,0
157,4183,4193,76,59,923,47,43,32,-41,3352,-12619,-14534,0,0
158,4203,4212,84,63,924,591,38,22,-40,3370,-12619,-14528,-16384,0
159,4222,4232,79,61,924,655,32,27,-38,3382,-12877,-14450,0,0
160,4242,4251,77,56,924,-223,36,35,-36,3430,-12517,-14342,16384,0
161,4261,4271,75,62,927,255,35,34,-37,3430,-12511,-14623,0,0
162,4281,4291,87,66,920,447,35,28,-44,3400,-12685,-14222,-16384,0
163,4301,4310,73,58,922,255,29,28,-36,3532,-12571,-14312,-32768,0
164,4320,4330,71,53,917,207,40,30,-36,3382,-12446,-14097,0,0
165,4340,4349,80,63,924,-95,36,25,-40,3352,-12505,-14552,0,0
166,4359,4369,80,56,928,0,37,34,-35,3502,-12446,-14498,16384,0
167,4382,4392,81,66,928,591,37,26,-43,3316,-12667,-14420,-16384,0
168,4401,4411,80,56,926,-47,36,33,-37,3478,-12487,-14432,0,0
169,4421,4431,76,62,920,63,41,32,-36,3388,-12493,-14605,16384,0
170,4441,4450,80,52,918,-207,37,32,-41,3400,-12619,-14408,0,0
171,4460,4470,76,63,926,319,30,30,-37,3591,-12553,-14582,0,0
172,4480,4490,80,65,928,-63,37,29,-38,3609,-12410,-14444,-16384,0
173,4499,4509,73,60,919,447,38,30,-42,3705,-12398,-14240,-32768,0
174,4519,4529,78,62,924,31,33,30,-42,3663,-12703,-14462,0,0
175,4539,4548,84,67,932,0,35,33,-40,3597,-12625,-14222,0,0
176,4558,4568,74,69,915,287,36,30,-38,3484,-12517,-14318,-16384,0
177,4578,4588,72,60,924,-175,38,32,-38,3723,-12559,-14647,0,0
178,4597,4607,84,56,923,431,33,33,-41,3693,-12673,-14611,16384,0
179,4617,4627,78,60,920,879,36,33,-36,3699,-12452,-14719,0,0
180,4640,4649,76,71,924,591,40,34,-41,3765,-12446,-14540,16384,0
181,4659,4669,80,57,929,479,40,30,-38,3591,-12362,-14617,-16384,0
182,4679,4688,76,67,924,31,38,30,-37,3490,-12475,-14462,0,0
183,4698,4708,70,65,915,319,36,30,-40,3621,-12589,-14390,-16384,0
184,4718,4728,73,53,922,399,38,33,-35,3597,-12374,-14055,16384,0
185,4738,4747,80,56,926,63,41,32,-43,3579,-12643,-14222,0,0
186,4757,4767,68,56,917,447,40,32,-38,3502,-12499,-14390,0,0
187,4777,4786,80,69,928,719,32,34,-36,3454,-12499,-14216,16384,0
188,4796,4806,84,66,920,-63,35,34,-36,3352,-12428,-14677,16384,0
189,4816,4826,83,60,924,111,41,24,-35,3550,-12458,-14677,0,0
190,4836,4845,80,53,922,191,30,32,-37,3460,-12697,-14450,-32768,0
191,4855,4865,79,63,925,255,38,29,-40,3514,-12523,-14564,0,0
192,4875,4885,82,60,914,719,35,33,-42,3478,-12416,-14408,0,0
193,4897,4907,75,63,919,0,41,26,-37,3496,-12452,-14725,0,0
194,4917,4927,80,59,920,-287,36,30,-41,3466,-12529,-14725,-32768,0
195,4937,4946,73,64,928,15,33,27,-41,3567,-12284,-14767,0,0
196,4956,4966,73,62,926,447,35,28,-36,3663,-12392,-14677,16384,0
197,4976,4985,77,63,922,31,41,35,-45,3675,-12332,-14522,0,0
198,4995,5005,81,52,927,527,34,29,-37,3663,-12422,-14635,-16384,0
199,5015,5025,80,65,922,335,38,33,-40,3597,-12607,-14594,-16384,0
200,5035,5044,80,69,931,575,36,25,-42,3735,-12625,-14845,16384,0
201,5054,5064,84,62,924,575,42,29,-38,3711,-12565,-14498,0,0
202,5074,5083,77,72,917,-159,30,32,-42,3729,-12589,-14665,-16384,0
203,5093,5103,79,61,922,-47,41,30,-42,3699,-12667,-14600,0,0
204,5113,5123,79,70,920,415,38,30,-44,3520,-12637,-14611,-16384,0
205,5133,5142,81,67,921,191,37,33,-30,3508,-12655,-14516,-16384,0
206,5155,5165,82,65,931,367,37,28,-42,3412,-12523,-14282,0,0
207,5175,5184,75,66,923,591,40,35,-41,3567,-12458,-14492,0,0
208,5194,5204,71,65,930,719,33,28,-41,3657,-12380,-14402,-16384,0
209,5214,5224,79,58,925,271,42,27,-41,3579,-12314,-14498,-16384,0
210,5233,5243,84,73,917,479,33,32,-40,3597,-12236,-14629,0,0
211,5253,5263,80,63,920,383,40,35,-40,3424,-12469,-14396,0,0
212,5273,5282,83,62,928,767,43,27,-36,3364,-12398,-14360,-16384,0
213,5292,5302,76,60,929,191,34,27,-40,3436,-12469,-14438,-16384,0
214,5312,5322,69,59,923,159,37,30,-38,3687,-12643,-14468,-16384,0
215,5332,5341,85,62,933,479,41,35,-37,3424,-12434,-14312,0,0
216,5351,5361,76,65,919,-95,37,29,-42,3448,-12619,-14354,0,0
217,5371,5380,76,69,927,15,35,29,-42,3484,-12715,-14594,-16384,0
218,5390,5400,71,65,923,511,37,32,-41,3597,-12499,-14552,0,0
219,5413,5422,80,58,917,415,40,33,-38,3532,-12577,-14396,0,0
220,5432,5442,75,65,912,383,38,26,-36,3484,-12661,-14707,0,0
221,5452,5461,76,63,923,415,35,30,-37,3490,-12458,-14731,0,0
222,5471,5481,76,60,919,463,32,30,-40,3334,-12499,-14851,0,0
223,5490,5500,82,63,931,-175,35,25,-40,3376,-12529,-14677,16384,0
224,5510,5520,85,57,925,527,35,34,-40,3340,-12464,-14426,0,0
225,5529,5539,78,58,917,271,38,34,-37,3484,-12464,-14480,0,0
226,5549,5558,68,65,929,623,41,25,-38,3352,-12278,-14600,-16384,0
227,5568,5578,76,63,933,431,29,32,-40,3615,-12344,-14707,0,0
228,5588,5597,80,60,922,-47,35,26,-40,3603,-12440,-14402,0,0
229,5607,5617,80,63,915,239,36,28,-35,3765,-12517,-14552,16384,0
230,5627,5636,72,63,924,463,33,33,-42,3496,-12344,-14510,16384,0
231,5646,5656,71,69,918,0,38,29,-38,3490,-12565,-14540,-16384,0
232,5676,5686,82,67,930,191,37,29,-38,3520,-12595,-14683,0,0
233,5695,5705,82,52,915,591,28,25,-40,3484,-12326,-14600,0,0
234,5715,5724,78,60,925,0,41,26,-36,3633,-12362,-14953,0,0
235,5734,5744,81,65,922,415,38,35,-36,3424,-12398,-14809,-16384,0
236,5754,5763,82,56,926,-207,38,32,-35,3376,-12493,-14833,-16384,0
237,5773,5783,84,54,924,383,34,32,-41,3567,-12434,-14528,0,0
238,5792,5802,81,60,924,-127,33,29,-35,3627,-12440,-14785,0,0
239,5812,5822,71,59,922,431,37,32,-43,3304,-12619,-14773,0,0
240,5831,5841,76,61,926,559,34,33,-42,3603,-12302,-14677,0,0
241,5851,5860,72,57,927,511,42,27,-38,3394,-12326,-14623,0,0
242,5870,5880,80,65,930,15,38,24,-38,3508,-12505,-14803,-16384,0
243,5890,5899,88,67,920,47,33,33,-41,3681,-12487,-14564,0,0
244,5909,5919,73,61,916,191,41,25,-43,3556,-12481,-14911,-16384,0
245,5931,5941,84,53,929,511,36,30,-41,3550,-12529,-14749,0,0
246,5951,5961,76,53,922,-191,34,28,-40,3502,-12547,-14881,0,0
247,5971,5980,80,67,929,959,35,28,-40,3544,-12422,-15060,-16384,0
248,5990,6000,84,60,920,847,40,28,-37,3220,-12583,-14815,-32768,0
249,6010,6020,75,63,920,0,38,27,-41,3370,-12404,-14761,0,0
250,6029,6039,80,52,920,223,42,26,-41,3442,-12266,-14504,16384,0
251,6049,6059,78,58,926,-63,40,30,-34,3538,-12469,-14707,-16384,0
252,6069,6078,76,60,928,463,40,30,-38,3364,-12547,-14611,-16384,0
253,6088,6098,76,59,920,-319,38,30,-40,3436,-12428,-14983,-16384,0
254,6108,6118,73,61,925,15,36,32,-44,3364,-12679,-14713,16384,0
255,6127,6137,84,67,924,-95,35,32,-41,3490,-12565,-14857,-16384,0
256,6147,6157,75,57,928,559,43,30,-38,3460,-12499,-14623,-32768,0
257,6167,6176,82,67,932,-207,32,29,-41,3538,-12529,-14695,16384,0
258,6186,6196,78,68,915,255,36,28,-40,3490,-12517,-14725,-16384,0
259,6209,6219,69,64,924,-143,36,28,-35,3520,-12631,-14594,0,0
260,6231,6240,78,55,918,-223,42,24,-44,3520,-12511,-14677,0,0
261,6250,6260,78,66,913,399,37,26,-40,3382,-12523,-14875,0,0
262,6270,6280,76,56,927,287,33,33,-41,3526,-12535,-14653,0,0
263,6289,6299,90,56,922,447,38,35,-35,3532,-12380,-14941,0,0
264,6309,6319,78,65,936,0,36,33,-42,3633,-12505,-14713,0,0
265,6329,6338,86,54,921,79,36,25,-44,3472,-12422,-14899,0,0
266,6348,6358,81,67,920,335,35,29,-36,3526,-12410,-14689,-32768,0
267,6368,6378,81,64,926,239,38,28,-42,3556,-12475,-14665,-16384,0
268,6388,6398,78,57,921,63,41,32,-37,3454,-12416,-14641,0,0
269,6407,6417,84,65,924,79,36,30,-36,3585,-12272,-14611,16384,0
270,6427,6437,83,57,928,79,41,32,-42,3478,-12469,-14546,0,0
271,6446,6456,82,61,921,255,34,27,-37,3783,-12410,-14833,16384,0
272,6469,6479,78,54,926,207,36,30,-41,3466,-12302,-14498,-16384,0
273,6489,6498,75,57,925,47,40,34,-41,3430,-12452,-14659,16384,0
274,6508,6518,78,63,928,-63,36,27,-38,3388,-12469,-14887,16384,0
275,6528,6538,75,54,926,-207,42,26,-36,3370,-12469,-14731,-16384,0
276,6548,6557,81,61,913,207,37,30,-38,3657,-12350,-14683,-16384,0
277,6567,6577,80,65,922,383,37,29,-38,3597,-12667,-14641,-16384,0
278,6587,6597,67,56,926,335,37,28,-41,3484,-12368,-14564,0,0
279,6606,6616,72,60,922,127,40,29,-42,3705,-12637,-14689,16384,0
280,6626,6636,76,60,928,415,40,32,-42,3597,-12619,-14761,16384,0
281,6646,6655,80,58,920,-63,37,33,-41,3394,-12745,-14725,-16384,0
282,6665,6675,80,65,917,223,35,35,-38,3591,-12787,-14797,-32768,0
283,6685,6695,79,58,917,-255,41,35,-36,3597,-12649,-15090,0,0
284,6705,6714,81,66,920,575,36,27,-43,3508,-12565,-14839,16384,0
285,6727,6737,69,64,930,607,38,26,-38,3639,-12505,-14863,16384,0
286,6747,6756,82,65,912,527,40,24,-43,3615,-12655,-14695,0,0
287,6766,6776,76,61,926,47,38,29,-40,3561,-12637,-14743,0,0
288,6786,6796,87,65,931,-223,40,27,-42,3466,-12541,-14713,0,0
289,6806,6815,90,62,921,0,37,27,-41,3591,-12452,-14629,-16384,0
290,6825,6835,76,58,922,63,43,25,-38,3597,-12398,-14863,-16384,0
291,6845,6855,81,63,928,287,32,24,-37,3591,-12595,-14707,-32768,0
292,6865,6874,75,65,920,-143,37,26,-40,3514,-12404,-14707,-32768,0
293,6884,6894,88,53,920,447,36,36,-36,3376,-12464,-14641,-16384,0
294,6904,6913,83,62,912,463,40,28,-43,3597,-12535,-14510,-16384,0
295,6923,6933,78,55,918,-287,40,27,-34,3645,-12523,-14791,-16384,0
296,6943,6953,87,58,926,479,36,36,-37,3567,-12541,-14893,0,0
297,6962,6972,76,67,926,63,38,32,-40,3627,-12434,-14432,0,0
298,6985,6995,78,61,925,79,35,26,-37,3615,-12631,-14671,16384,0
299,7005,7015,71,63,918,191,41,32,-41,3496,-12775,-14522,-32768,0
300,7024,7034,85,60,928,0,34,25,-41,3645,-12595,-14611,16384,0
301,7044,7054,75,67,920,527,41,28,-44,3526,-12667,-14174,-16384,0
302,7064,7073,79,61,931,815,40,28,-44,3292,-12529,-14504,0,0
303,7083,7093,82,63,928,31,41,27,-35,3436,-12428,-14582,0,0
304,7103,7112,88,60,920,815,38,30,-41,3585,-12434,-14558,0,0
305,7122,7132,74,70,924,159,37,30,-41,3322,-12673,-14384,-16384,0
306,7142,7152,82,66,925,287,40,29,-40,3657,-12619,-14498,-16384,0
307,7162,7172,78,58,922,-319,38,29,-40,3382,-12595,-14246,-16384,0
308,7181,7191,82,60,918,415,40,25,-40,3382,-12529,-14480,-16384,0
309,7201,7211,75,59,915,191,36,29,-36,3328,-12601,-14641,-16384,0
310,7221,7230,89,60,930,239,38,30,-41,3376,-12511,-14174,0,0
311,7243,7253,83,64,921,47,34,27,-44,3490,-12583,-14552,16384,0
312,7263,7272,83,65,930,751,40,34,-38,3526,-12769,-13983,-16384,0
313,7282,7292,82,63,934,79,34,28,-43,3442,-12529,-14162,0,0
314,7302,7312,77,60,923,-47,37,29,-38,3364,-12643,-14330,16384,0
315,7322,7331,80,65,921,383,38,27,-41,3544,-12601,-14306,-16384,0
316,7341,7351,82,62,923,367,33,33,-40,3448,-12721,-14420,0,0
317,7361,7371,78,60,927,191,33,25,-42,3532,-12745,-14713,0,0
318,7380,7390,82,63,922,0,34,21,-43,3609,-12571,-14635,16384,0
319,7400,7410,84,63,924,-15,36,28,-37,3484,-12541,-14665,0,0
320,7420,7429,80,65,925,223,40,26,-42,3412,-12727,-14396,16384,0
321,7439,7449,83,60,922,239,38,29,-42,3436,-12715,-14552,16384,0
322,7459,7469,82,66,937,143,38,33,-36,3412,-12505,-14420,0,0
323,7479,7488,78,60,929,15,37,27,-40,3556,-12571,-14288,16384,0
324,7501,7511,78,59,932,207,36,28,-36,3496,-12523,-14558,16384,0
325,7520,7530,82,63,937,591,37,22,-40,3561,-12469,-14354,16384,0
326,7540,7550,75,61,914,527,40,28,-41,3651,-12535,-14588,0,0
327,7559,7569,77,67,924,175,40,32,-41,3436,-12428,-14348,-16384,0
328,7579,7588,77,67,928,831,35,29,-40,3573,-12386,-14635,0,0
329,7598,7608,80,66,920,303,34,33,-37,3627,-12643,-14534,0,0
330,7618,7628,82,60,927,-239,33,25,-38,3651,-12667,-14779,-16384,0
331,7637,7647,80,56,916,335,37,32,-34,3669,-12559,-14594,-16384,0
332,7657,7666,77,61,928,399,34,30,-36,3591,-12296,-14899,0,0
333,7676,7686,78,56,918,47,33,26,-44,3591,-12452,-14641,16384,0
334,7696,7705,76,59,924,111,36,30,-37,3490,-12559,-14779,0,0
335,7715,7725,71,73,917,-79,41,29,-40,3627,-12577,-14318,16384,0
336,7734,7744,76,65,917,143,40,29,-38,3579,-12595,-14294,-16384,0
337,7757,7767,77,60,922,319,35,26,-43,3585,-12637,-14444,0,0
338,7776,7786,76,63,913,143,41,22,-36,3627,-12721,-14372,0,0
339,7796,7805,78,64,930,367,35,28,-40,3651,-12446,-14821,-32768,0
340,7815,7825,71,63,920,-303,34,25,-37,3693,-12541,-14372,-16384,0
341,7835,7844,71,67,920,-127,37,22,-36,3633,-12601,-14516,0,0
342,7854,7864,85,64,928,271,35,29,-42,3502,-12487,-14432,16384,0
343,7873,7883,76,63,929,-191,34,25,-43,3466,-12392,-14588,0,0
344,7893,7903,85,54,928,543,34,27,-37,3597,-12266,-14659,-16384,0
345,7913,7922,90,57,920,0,30,32,-42,3573,-12499,-14552,0,0
346,7932,7942,75,65,925,559,36,28,-40,3711,-12392,-14815,0,0
347,7951,7961,78,56,920,127,37,35,-41,3747,-12338,-14570,-16384,0
348,7971,7980,75,63,922,79,41,33,-43,3693,-12583,-14635,0,0
349,7990,8000,77,60,926,127,38,28,-37,3567,-12487,-14713,16384,0
350,8013,8022,71,63,922,447,40,29,-42,3693,-12410,-14564,0,0
351,8032,8042,79,65,922,239,38,28,-38,3490,-12314,-14707,-32768,0
352,8052,8062,78,63,919,415,38,28,-43,3759,-12380,-14534,16384,0
353,8072,8081,85,69,916,31,37,24,-38,3783,-12410,-14600,16384,0
354,8091,8101,81,60,928,-47,42,30,-40,3609,-12422,-14522,0,0
355,8111,8120,78,58,929,0,40,27,-40,3520,-12541,-14420,0,0
356,8130,8140,79,63,920,479,35,32,-41,3681,-12487,-14456,0,0
357,8150,8160,85,65,927,191,36,30,-38,3561,-12458,-14582,0,0
358,8170,8179,87,65,922,287,41,27,-41,3550,-12446,-14588,-32768,0
359,8189,8199,69,60,922,735,41,29,-40,3514,-12392,-14665,0,0
360,8209,8219,81,60,911,351,34,33,-38,3621,-12188,-14953,0,0
361,8229,8238,75,55,923,415,38,33,-35,3705,-12386,-14456,0,0
362,8248,8258,77,56,921,319,32,30,-42,3579,-12625,-14540,16384,0
363,8268,8277,71,61,925,-287,40,34,-36,3573,-12619,-14695,0,0
364,8290,8300,78,68,925,-351,36,35,-41,3412,-12434,-14737,16384,0
365,8310,8320,86,63,919,623,37,33,-35,3496,-12236,-14665,16384,0
366,8329,8339,80,60,920,255,38,35,-35,3705,-12326,-14755,0,0
367,8349,8359,81,57,920,63,34,21,-42,3645,-12380,-14875,16384,0
368,8369,8379,78,56,920,431,41,33,-41,3597,-12410,-14731,16384,0
369,8388,8398,81,56,934,191,37,29,-41,3591,-12410,-14743,0,0
370,8408,8418,85,63,915,-223,42,33,-42,3544,-12559,-14426,0,0
371,8428,8437,78,64,935,719,35,29,-42,3466,-12529,-14528,0,0
372,8447,8457,80,74,914,79,36,26,-38,3621,-12565,-14438,16384,0
373,8467,8477,90,57,928,95,35,26,-40,3579,-12619,-14647,0,0
374,8486,8496,78,67,925,255,36,29,-42,3585,-12523,-14629,-16384,0
375,8506,8516,82,57,917,111,36,30,-42,3567,-12505,-14707,16384,0
376,8526,8536,75,57,919,143,34,32,-40,3352,-12565,-14833,0,0
377,8548,8558,85,63,922,255,38,25,-42,3711,-12475,-14342,0,0
378,8568,8578,73,62,921,655,41,29,-41,3430,-12469,-14486,0,0
379,8587,8597,78,63,924,687,41,33,-43,3573,-12362,-14851,0,0
380,8607,8617,82,63,920,735,37,32,-45,3508,-12487,-14767,-16384,0
381,8629,8638,75,65,922,367,41,35,-40,3651,-12475,-14540,0,0
382,8648,8658,83,64,931,-63,30,29,-40,3561,-12356,-14695,0,0
383,8668,8678,83,59,915,63,33,24,-38,3400,-12541,-14737,-16384,0
384,8688,8698,79,67,918,447,36,27,-35,3573,-12553,-14617,0,0
385,8707,8717,82,57,928,559,40,26,-41,3663,-12487,-14354,0,0
386,8727,8737,77,65,928,591,41,30,-34,3460,-12452,-14594,0,0
387,8747,8756,83,58,920,175,40,29,-40,3436,-12386,-14348,-16384,0
388,8766,8776,78,67,920,399,35,35,-43,3316,-12392,-14647,-16384,0
389,8786,8795,79,63,937,303,36,30,-38,3412,-12218,-14546,16384,0
390,8808,8818,73,64,921,207,40,32,-42,3538,-12380,-14582,0,0
391,8828,8838,82,65,924,255,38,28,-37,3532,-12386,-14558,0,0
392,8848,8857,87,58,922,383,42,28,-36,3561,-12565,-14588,0,0
393,8867,8877,78,65,920,559,36,30,-42,3556,-12218,-14480,-16384,0
394,8887,8897,71,63,924,399,38,32,-41,3633,-12446,-14402,0,0
395,8906,8916,80,65,926,463,42,30,-43,3322,-12230,-14384,-16384,0
396,8926,8936,85,62,928,783,38,33,-40,3436,-12218,-14402,-16384,0
397,8946,8955,87,73,919,-143,35,22,-40,3442,-12206,-14462,0,0
398,8965,8975,68,68,926,63,42,25,-41,3520,-12356,-14486,0,0
399,8985,8995,77,62,922,-143,38,32,-40,3370,-12410,-14432,0,0
400,9005,9014,81,71,924,383,44,32,-37,3567,-12230,-14276,16384,0
401,9024,9034,87,63,918,703,38,28,-41,3268,-12422,-14049,-16384,0
402,9044,9053,80,66,919,-47,36,29,-45,3591,-12338,-14115,0,0
403,9066,9076,70,61,929,127,34,33,-40,3256,-12350,-14091,0,0
404,9086,9096,83,63,924,143,41,27,-44,3603,-12356,-14312,0,0
405,9106,9115,75,61,926,367,37,30,-34,3556,-12284,-14216,0,0
406,9125,9135,77,51,925,191,40,30,-37,3532,-12188,-14378,0,0
407,9145,9155,76,59,922,175,40,28,-40,3388,-12242,-14306,-16384,0
408,9164,9174,79,57,917,415,41,27,-42,3508,-12464,-14264,-16384,0
409,9184,9194,75,59,929,0,40,33,-40,3352,-12290,-14180,0,0
410,9204,9213,71,60,934,47,35,26,-36,3544,-12356,-14635,0,0
411,9223,9233,72,66,925,127,36,28,-42,3412,-12260,-14402,-16384,0
412,9243,9253,72,68,928,-111,38,28,-41,3472,-12511,-14139,0,0
413,9262,9272,77,60,922,-303,36,22,-40,3388,-12517,-14294,0,0
414,9282,9292,77,60,918,335,42,27,-43,3388,-12350,-14396,-32768,0
415,9302,9312,71,64,920,383,33,29,-40,3430,-12200,-14444,-16384,0
416,9324,9334,79,66,925,575,38,30,-41,3472,-12254,-14689,0,0
417,9344,9354,73,60,921,159,34,30,-41,3490,-12212,-14330,-16384,0
418,9364,9373,68,67,923,463,34,29,-41,3442,-12284,-14270,0,0
419,9383,9393,76,58,924,-95,37,26,-41,3669,-12481,-14366,-32768,0
420,9403,9413,80,67,918,687,36,29,-38,3424,-12278,-14462,0,0
421,9422,9432,83,59,924,0,37,30,-37,3430,-12422,-14540,0,0
422,9442,9452,79,55,920,511,36,26,-36,3286,-12392,-14629,0,0
423,9462,9472,78,61,921,367,40,28,-40,3256,-12577,-14546,0,0
424,9481,9491,85,64,924,479,37,30,-43,3382,-12517,-14540,16384,0
425,9501,9511,82,66,919,-63,40,33,-35,3406,-12170,-14617,0,0
426,9521,9530,82,66,918,591,37,24,-37,3244,-12302,-14552,0,0
427,9540,9550,71,60,924,799,40,33,-41,3190,-12452,-14288,16384,0
428,9560,9569,80,69,926,255,35,26,-36,3418,-12428,-14462,0,0
429,9582,9592,82,63,923,719,37,34,-38,3214,-12272,-14983,16384,0
430,9602,9612,82,62,932,-447,35,34,-36,3412,-12517,-14959,0,0
431,9621,9631,82,63,923,847,37,25,-36,3328,-12386,-14444,0,0
432,9641,9650,78,59,935,319,36,33,-36,3448,-12416,-14342,-16384,0
433,9660,9670,78,65,921,175,34,28,-38,3322,-12332,-14611,0,0
434,9679,9689,80,59,920,367,41,30,-42,3310,-12266,-14462,0,0
435,9699,9709,73,67,913,367,38,30,-40,3226,-12404,-14360,0,0
436,9718,9728,78,60,916,47,37,30,-37,3089,-12452,-14743,16384,0
437,9738,9748,80,66,929,575,38,29,-34,3035,-12829,-14420,16384,0
438,9757,9767,88,63,926,559,36,34,-40,3388,-12458,-14582,0,0
439,9777,9787,78,66,921,495,36,29,-38,3364,-12452,-14534,16384,0
440,9796,9806,78,65,915,191,35,30,-40,3442,-12254,-14546,0,0
441,9816,9825,80,69,917,639,38,30,-40,3346,-12416,-14294,-32768,0
442,9838,9848,84,66,922,-143,37,34,-36,3268,-12362,-14414,-16384,0
443,9857,9867,69,66,924,623,38,26,-41,3280,-12541,-14210,-16384,0
444,9877,9886,76,62,926,0,38,33,-40,3232,-12248,-14258,0,0
445,9896,9906,75,63,935,655,36,40,-38,3286,-12541,-14468,0,0
446,9916,9925,65,63,916,63,40,32,-38,3244,-12434,-14528,0,0
447,9935,9945,78,65,919,655,41,24,-40,3388,-12577,-14504,-32768,0
448,9955,9964,75,70,924,15,43,25,-41,3328,-12487,-14671,-32768,0
449,9974,9984,86,55,909,143,32,30,-37,3382,-12523,-14617,-32768,0
450,9993,10003,83,64,921,399,43,33,-38,3478,-12469,-14570,0,0
451,10013,10023,73,66,910,63,40,35,-38,3250,-12338,-14611,0,0
452,10032,10042,79,60,933,-127,38,29,-37,3232,-12338,-14737,16384,0
453,10052,10062,85,63,932,143,40,26,-41,3478,-12404,-14312,16384,0
454,10071,10081,90,67,926,-79,38,25,-35,3406,-12452,-14426,-16384,0
455,10094,10104,82,56,927,463,38,29,-36,3538,-12481,-14444,16384,0
456,10113,10123,81,65,926,0,30,28,-35,3454,-12553,-14504,0,0
457,10133,10143,81,67,923,479,37,28,-43,3262,-12434,-14348,16384,0
458,10153,10162,78,69,924,463,38,28,-41,3591,-12290,-14354,0,0
459,10172,10182,82,57,918,463,33,29,-37,3603,-12296,-14306,-32768,0
460,10192,10202,80,68,916,319,38,27,-42,3669,-12386,-14282,0,0
461,10212,10221,75,60,920,159,35,25,-37,3561,-12308,-14833,0,0
462,10231,10241,82,61,927,591,35,30,-38,3370,-12446,-14767,-16384,0
463,10251,10261,80,63,924,15,41,30,-41,3466,-12505,-15031,16384,0
464,10270,10280,82,58,913,671,33,27,-40,3502,-12487,-14522,0,0
465,10290,10300,80,60,920,-319,38,32,-43,3406,-12362,-14402,0,0
466,10310,10319,78,65,914,623,34,28,-37,3544,-12290,-14474,-16384,0
467,10329,10339,78,57,920,319,43,30,-37,3496,-12452,-14504,16384,0
468,10349,10359,76,63,920,527,40,33,-41,3412,-12511,-14420,0,0
469,10372,10381,87,60,919,-31,36,28,-40,3346,-12535,-14354,0,0
470,10391,10401,78,60,925,719,38,29,-42,3370,-12535,-14588,16384,0
471,10411,10421,80,65,925,383,34,34,-43,3454,-12547,-14360,-16384,0
472,10430,10440,83,58,929,575,30,29,-37,3346,-12493,-14486,-16384,0
473,10450,10460,86,58,923,175,34,32,-42,3424,-12469,-14414,-32768,0
474,10470,10479,82,67,913,0,33,32,-43,3454,-12499,-14378,16384,0
475,10489,10499,83,63,922,287,40,32,-40,3538,-12679,-14390,-16384,0
476,10509,10519,76,63,925,-239,34,29,-40,3352,-12398,-14324,0,0
477,10528,10538,82,63,922,-223,35,29,-42,3502,-12493,-14456,0,0
478,10548,10558,84,60,926,319,35,25,-37,3490,-12541,-14216,16384,0
479,10568,10577,75,60,924,351,34,22,-40,3340,-12416,-14282,16384,0
480,10587,10597,75,67,910,351,34,28,-37,3508,-12464,-14402,0,0
481,10607,10616,82,60,912,655,41,26,-36,3442,-12284,-14486,-16384,0
482,10629,10639,66,59,911,127,34,30,-43,3418,-12541,-14480,0,0
483,10649,10659,84,57,919,175,30,25,-40,3430,-12523,-14264,-16384,0
484,10669,10679,82,61,928,-287,36,32,-41,3472,-12535,-14462,0,0
485,10688,10698,72,60,908,303,38,28,-36,3400,-12320,-14713,0,0
486,10708,10718,76,67,924,-143,38,29,-42,3370,-12607,-14516,-16384,0
487,10728,10737,74,62,917,-15,38,30,-35,3352,-12170,-14546,0,0
488,10747,10757,78,64,927,-47,37,26,-41,3502,-12481,-14426,0,0
489,10767,10776,83,56,917,175,41,25,-37,3298,-12344,-14480,0,0
490,10786,10796,84,60,935,287,38,30,-40,3388,-12547,-14306,-32768,0
491,10806,10816,75,62,919,-79,35,29,-42,3430,-12553,-14498,16384,0
492,10826,10836,79,60,920,15,41,28,-40,3388,-12487,-14402,0,0
493,10845,10855,80,61,926,-15,38,28,-40,3448,-12661,-14312,-16384,0
494,10865,10875,82,67,918,175,36,28,-34,3526,-12475,-14564,0,0
495,10888,10897,74,59,921,95,34,26,-38,3567,-12499,-14653,0,0
496,10907,10917,75,57,921,95,37,24,-40,3609,-12481,-14617,16384,0
497,10927,10936,80,59,928,287,35,26,-34,3609,-12691,-14252,0,0
498,10946,10956,78,61,921,-255,41,38,-46,3436,-12499,-14330,-16384,0
499,10966,10976,71,65,929,127,34,29,-37,3603,-12362,-14546,-16384,0
500,10986,10995,70,62,919,639,37,30,-42,3316,-12481,-14127,0,0
501,11005,11015,80,70,922,319,35,32,-35,3250,-12302,-14240,0,0
502,11027,11037,69,60,919,735,36,28,-41,3442,-12517,-14605,0,0
503,11047,11056,81,67,924,63,36,30,-41,3430,-12517,-14282,-32768,0
504,11066,11076,82,62,919,431,38,29,-34,3412,-12338,-14432,-16384,0
505,11086,11096,79,63,926,655,41,33,-38,3561,-12200,-14258,0,0
506,11105,11115,78,63,922,15,41,32,-41,3609,-12440,-14821,16384,0
507,11125,11135,80,65,920,175,40,35,-35,3484,-12541,-14306,0,0
508,11148,11157,79,50,923,303,32,27,-40,3406,-12416,-14252,-16384,0
509,11167,11177,87,55,917,207,38,28,-38,3478,-12452,-14390,-32768,0
510,11187,11197,73,64,922,351,34,29,-37,3376,-12434,-14318,-16384,0
511,11206,11216,77,65,918,31,40,30,-42,3556,-12529,-14408,0,0
512,11226,11236,76,59,931,591,35,35,-35,3591,-12434,-14528,16384,0
513,11246,11255,79,69,926,-239,38,25,-40,3502,-12458,-14552,-16384,0
514,11265,11275,73,71,932,463,34,30,-41,3466,-12487,-14546,-16384,0
515,11285,11295,81,59,924,623,30,27,-41,3550,-12326,-14354,-16384,0
516,11305,11314,79,59,928,-95,36,32,-37,3496,-12440,-14288,0,0
517,11324,11334,79,58,914,911,34,29,-41,3556,-12511,-14695,16384,0
518,11344,11354,78,58,930,15,35,28,-34,3304,-12535,-14510,0,0
519,11363,11373,78,70,924,287,32,29,-43,3394,-12631,-14474,-32768,0
520,11383,11393,73,58,937,255,43,28,-38,3514,-12475,-14282,16384,0
521,11406,11415,80,63,922,-111,29,34,-41,3573,-12446,-14354,0,0
522,11425,11435,84,59,921,159,38,30,-44,3645,-12326,-14103,-32768,0
523,11445,11455,72,63,921,543,38,29,-37,3544,-12416,-14528,-32768,0
524,11465,11474,84,58,924,-95,40,28,-38,3406,-12452,-14306,0,0
525,11484,11494,73,60,926,0,37,28,-42,3526,-12320,-14516,0,0
526,11504,11513,82,67,926,-63,36,26,-37,3597,-12398,-14270,-16384,0
527,11523,11533,80,56,917,559,40,32,-37,3520,-12589,-14558,0,0
528,11543,11553,81,64,924,111,37,32,-40,3460,-12308,-14348,-16384,0
529,11563,11572,82,70,923,47,40,28,-35,3627,-12428,-14330,0,0
530,11582,11592,76,58,919,831,37,27,-41,3609,-12242,-14528,-32768,0
531,11602,11612,79,65,928,175,38,32,-36,3304,-12218,-14282,0,0
532,11622,11631,76,56,927,191,38,27,-41,3436,-12505,-14366,-32768,0
533,11641,11651,81,52,928,511,34,30,-40,3556,-12302,-14330,0,0
534,11663,11673,74,73,925,447,35,33,-41,3621,-12493,-14246,0,0
535,11683,11693,83,63,915,511,33,28,-42,3466,-12392,-14432,-16384,0
536,11702,11712,84,53,921,415,38,36,-38,3436,-12404,-14623,-16384,0
537,11722,11731,88,59,920,0,34,29,-38,3544,-12469,-14330,0,0
538,11741,11751,74,61,933,575,34,28,-40,3418,-12374,-14659,0,0
539,11761,11771,78,70,926,719,35,32,-38,3502,-12487,-14492,0,0
540,11780,11790,77,68,928,415,36,29,-40,3460,-12350,-14306,-16384,0
541,11800,11809,79,62,920,79,37,33,-41,3478,-12547,-14348,-16384,0
542,11819,11829,76,63,939,15,37,28,-37,3364,-12517,-14378,0,0
543,11839,11848,79,63,915,479,40,29,-41,3400,-12481,-14552,-16384,0
544,11858,11868,84,75,924,-47,40,29,-42,3633,-12398,-14366,0,0
545,11877,11887,80,65,925,223,41,33,-40,3496,-12547,-14222,0,0
546,11897,11907,76,59,926,607,38,32,-40,3579,-12631,-14330,0,0
547,11919,11929,73,58,913,431,37,27,-37,3364,-12416,-14396,-32768,0
548,11939,11948,88,62,929,303,38,29,-41,3729,-12649,-14043,16384,0
549,11958,11968,80,61,928,207,41,30,-37,3615,-12577,-13995,16384,0
550,11978,11987,65,56,929,367,37,30,-42,3418,-12338,-14324,0,0
551,11997,12007,71,69,921,-79,42,33,-38,3502,-12308,-14546,16384,0
552,12017,12026,76,62,915,287,38,28,-34,3526,-12458,-14450,-16384,0
553,12036,12046,78,68,933,95,35,30,-35,3556,-12464,-14234,0,0
554,12056,12065,81,58,930,-255,40,28,-38,3561,-12320,-14336,0,0
555,12075,12085,72,65,922,-191,40,29,-42,3609,-12374,-14450,-16384,0
556,12094,12104,79,60,926,127,38,28,-40,3603,-12440,-14180,-16384,0
557,12114,12124,71,64,920,-207,36,32,-38,3526,-12302,-14426,0,0
558,12133,12143,83,64,930,399,37,30,-35,3538,-12296,-14426,0,0
559,12153,12163,81,60,913,-79,35,30,-49,3484,-12374,-14444,0,0
560,12172,12182,80,60,927,191,34,30,-37,3639,-12523,-14432,-32768,0
561,12190,12200,85,65,915,495,38,28,-41,3561,-12170,-14420,-16384,0
562,12210,12219,76,61,929,399,34,30,-38,3544,-12290,-14198,-16384,0
563,12229,12239,77,65,918,383,41,26,-38,3567,-12188,-14378,-16384,0
564,12249,12258,84,68,921,0,36,29,-37,3430,-12158,-14318,-16384,0
565,12268,12278,76,57,922,335,33,29,-35,3466,-12230,-14354,16384,0
566,12288,12298,82,62,922,159,33,35,-45,3520,-12182,-14354,-32768,0
567,12308,12317,68,55,922,639,36,27,-43,3478,-12320,-14258,0,0
568,12327,12337,88,58,918,175,34,33,-37,3394,-12434,-14336,0,0
569,12347,12357,82,64,928,511,33,27,-38,3508,-12428,-14462,16384,0
570,12366,12376,80,68,920,31,37,32,-36,3538,-12260,-14486,-16384,0
571,12386,12396,77,66,919,-79,37,28,-40,3454,-12583,-14354,0,0
572,12406,12415,76,61,930,-31,34,32,-37,3532,-12398,-14408,-16384,0
573,12425,12435,82,58,923,335,33,26,-37,3514,-12649,-14510,0,0
574,12448,12458,73,57,914,0,37,33,-36,3508,-12308,-14408,16384,0
575,12467,12477,75,66,925,479,38,30,-40,3364,-12248,-14456,0,0
576,12487,12497,77,63,933,-111,42,32,-43,3250,-12272,-14588,-16384,0
577,12507,12516,82,67,918,175,35,30,-42,3430,-12428,-14378,-32768,0
578,12526,12536,82,59,925,0,37,34,-41,3550,-12446,-14516,-16384,0
579,12546,12556,80,63,929,479,35,29,-35,3412,-12458,-14168,0,0
580,12565,12575,77,53,924,687,34,26,-40,3334,-12499,-14378,-32768,0
581,12585,12595,80,68,922,63,37,26,-40,3478,-12380,-14366,0,0
582,12605,12614,78,66,923,-79,40,26,-37,3388,-12380,-14180,0,0
583,12624,12634,77,63,919,-31,36,27,-37,3550,-12278,-14115,0,0
584,12644,12654,77,62,926,703,33,27,-41,3262,-12511,-14420,0,0
585,12664,12673,85,65,929,303,37,28,-41,3328,-12344,-14330,-32768,0
586,12683,12693,80,54,922,239,36,26,-38,3502,-12386,-14396,-16384,0
587,12706,12715,78,66,923,-63,40,28,-48,3502,-12458,-14360,0,0
588,12725,12735,75,58,929,255,34,28,-42,3520,-12523,-14743,0,0
589,12745,12755,74,61,922,-95,33,29,-40,3699,-12487,-14252,16384,0
590,12765,12774,88,63,930,719,40,26,-37,3472,-12577,-14180,0,0
591,12784,12794,72,58,917,0,37,25,-35,3388,-12434,-14067,0,0
592,12804,12814,84,63,928,0,34,36,-41,3376,-12559,-14348,16384,0
593,12824,12833,72,69,922,207,37,29,-37,3556,-12440,-14372,0,0
594,12843,12853,73,58,910,271,35,30,-36,3579,-12380,-14623,0,0
595,12863,12872,72,61,926,63,43,34,-38,3466,-12493,-14623,0,0
596,12882,12892,80,57,934,95,36,35,-42,3705,-12392,-14474,-16384,0
597,12902,12912,87,65,925,175,41,32,-37,3585,-12368,-14258,-16384,0
598,12922,12931,75,64,924,0,38,27,-37,3639,-12332,-14246,-16384,0
599,12941,12951,71,67,914,-159,34,34,-40,3561,-12284,-14079,0,0
600,12964,12974,78,63,926,95,32,29,-41,3663,-12206,-14168,-16384,0
601,12983,12993,72,61,917,15,36,30,-41,3478,-12284,-14522,-16384,0
602,13003,13013,78,64,929,271,33,28,-37,3579,-12374,-14210,0,0
603,13023,13032,86,67,930,223,40,29,-42,3621,-12469,-14468,-32768,0
