count,tInitial,tFinal,accel_x,accel_y,accel_z,accel_high,gyro_x,gyro_y,gyro_z,mag_x,mag_y,mag_z,temp
2621,9768,9770,3751,5616,22329,15,6263,9378,-28252,20108,-10326,-18521,1889
2622,9772,9773,3751,5616,22329,-63,6263,9378,-28252,20108,-10326,-18521,1871
2623,9775,9777,3751,5616,22329,-79,6263,9378,-28252,20240,-10254,-18515,70
0,1014,1016,3751,5616,22329,-207,6263,9378,-28252,20192,-10530,-18838,1852
1,1016,1018,3751,5616,22329,47,6263,9378,-28252,20258,-10308,-18958,1895
2,1018,1020,3751,5616,22329,-191,6263,9378,-28252,20258,-10308,-18958,1912
3,1020,1021,3751,5616,22329,-111,6263,9378,-28252,20258,-10308,-18958,1923
4,1021,1023,3751,5616,22329,-223,6263,9378,-28252,20258,-10308,-18958,1928
5,1023,1025,3751,5616,22329,79,6263,9378,-28252,20228,-10374,-18694,1935
6,1027,1028,3751,5616,22329,-47,6263,9378,-28252,20228,-10374,-18694,1943
7,1030,1032,3751,5616,22329,-15,6263,9378,-28252,20300,-10219,-18724,1965
8,1033,1035,3751,5616,22329,-143,6263,9378,-28252,20300,-10219,-18724,1972
9,1037,1038,3751,5616,22329,0,6263,9378,-28252,20258,-10422,-18868,1951
10,1040,1042,3751,5616,22329,-95,6263,9378,-28252,20258,-10422,-18868,1936
11,1043,1045,3751,5616,22329,-47,6263,9378,-28252,20198,-10213,-18616,1940
12,1047,1048,3751,5616,22329,-111,6263,9378,-28252,20198,-10213,-18616,1955
13,1050,1052,3751,5616,22329,0,6263,9378,-28252,20234,-10326,-18563,1953
14,1053,1055,3751,5616,22329,-143,6263,9378,-28252,20234,-10326,-18563,1938
15,1057,1058,3751,5616,22329,47,6263,9378,-28252,20366,-10248,-18467,1928
16,1060,1062,3751,5616,22329,-63,6263,9378,-28252,20366,-10248,-18467,1930
17,1063,1065,3751,5616,22329,111,6263,9378,-28252,20138,-10368,-18443,1949
18,1067,1069,3751,5616,22329,-127,6263,9378,-28252,20138,-10368,-18443,1948
19,1070,1072,3751,5616,22329,-79,6263,9378,-28252,20366,-10260,-18359,1924
20,1073,1075,3751,5616,22329,-191,6263,9378,-28252,20366,-10260,-18359,1914
21,1077,1079,3751,5616,22329,-159,6263,9378,-28252,20288,-10320,-18676,1921
22,1080,1082,3751,5616,22329,255,6263,9378,-28252,20258,-10278,-18628,1933
23,1083,1085,3751,5616,22329,-15,6263,9378,-28252,20258,-10278,-18628,1931
24,1087,1089,3751,5616,22329,0,6263,9378,-28252,20384,-10195,-18401,1916
25,1090,1092,3751,5616,22329,-95,6263,9378,-28252,20384,-10195,-18401,1902
26,1093,1095,3751,5616,22329,-159,6263,9378,-28252,20324,-10147,-18539,1912
27,1097,1099,3751,5616,22329,-79,6263,9378,-28252,20324,-10147,-18539,1930
28,1100,1102,3751,5616,22329,0,6263,9378,-28252,20456,-10404,-18569,1927
29,1104,1105,3751,5616,22329,-63,6263,9378,-28252,20456,-10404,-18569,1907
30,1107,1109,3751,5616,22329,-79,6263,9378,-28252,20324,-10314,-18622,1896
31,1110,1112,3751,5616,22329,191,6263,9378,-28252,20324,-10314,-18622,1903
32,1114,1115,3751,5616,22329,-79,6263,9378,-28252,20276,-10284,-18652,1917
33,1117,1119,3751,5616,22329,-63,6263,9378,-28252,20276,-10284,-18652,1919
34,1120,1122,3751,5616,22329,-207,6263,9378,-28252,20192,-10254,-18688,1898
35,1124,1125,3751,5616,22329,-95,6263,9378,-28252,20192,-10254,-18688,1893
36,1127,1129,3751,5616,22329,-191,6263,9378,-28252,20204,-10225,-18814,1900
37,1130,1132,3751,5616,22329,47,6263,9378,-28252,20204,-10225,-18814,1916
38,1134,1135,3751,5616,22329,0,6263,9378,-28252,20258,-10278,-18611,1910
39,1137,1139,3751,5616,22329,159,6263,9378,-28252,20258,-10278,-18611,1895
40,1140,1142,3751,5616,22329,0,6263,9378,-28252,20342,-10290,-18724,1888
41,1144,1145,3751,5616,22329,-111,6263,9378,-28252,20342,-10290,-18724,1896
42,1147,1149,3751,5616,22329,63,6263,9378,-28252,20276,-10231,-18628,1910
43,1150,1152,3751,5616,22329,-111,6263,9378,-28252,20276,-10231,-18628,1906
44,1154,1155,3751,5616,22329,-207,6263,9378,-28252,20402,-10404,-18760,1894
45,1157,1159,3751,5616,22329,63,6263,9378,-28252,20402,-10404,-18760,1890
46,1160,1162,3751,5616,22329,-127,6263,9378,-28252,20198,-10362,-18413,1895
47,1164,1165,3751,5616,22329,95,6263,9378,-28252,20342,-10314,-18892,1913
48,1167,1169,3751,5616,22329,335,6263,9378,-28252,20342,-10314,-18892,1911
49,1170,1172,3751,5616,22329,-31,6263,9378,-28252,20408,-10458,-18772,1892
50,1174,1175,3751,5616,22329,15,6263,9378,-28252,20408,-10458,-18772,1876
51,1177,1179,3751,5616,22329,-479,6263,9378,-28252,20156,-10398,-18772,1896
52,1180,1182,3751,5616,22329,-159,6263,9378,-28252,20156,-10398,-18772,1913
53,1184,1186,3751,5616,22329,-47,6263,9378,-28252,20270,-10374,-18808,1909
54,1187,1189,3751,5616,22329,-111,6263,9378,-28252,20270,-10374,-18808,1890
55,1190,1192,3751,5616,22329,-111,6263,9378,-28252,20378,-10326,-18886,1876
56,1194,1196,3751,5616,22329,-63,6263,9378,-28252,20378,-10326,-18886,1896
57,1197,1199,3751,5616,22329,271,6263,9378,-28252,20318,-10452,-18808,1913
58,1200,1202,3751,5616,22329,15,6263,9378,-28252,20318,-10452,-18808,1908
59,1204,1206,3751,5616,22329,0,6263,9378,-28252,20306,-10284,-18557,1890
60,1207,1209,3751,5616,22329,-47,6263,9378,-28252,20306,-10284,-18557,1875
61,1210,1212,3751,5616,22329,-127,6263,9378,-28252,20354,-10410,-18491,1896
62,1214,1216,3751,5616,22329,79,6263,9378,-28252,20354,-10410,-18491,1912
63,1217,1219,3751,5616,22329,-239,6263,9378,-28252,20330,-10404,-18892,1906
64,1221,1222,3751,5616,22329,-175,6263,9378,-28252,20330,-10404,-18892,1889
65,1224,1226,3751,5616,22329,-207,6263,9378,-28252,20390,-10356,-18730,1881
66,1227,1229,3751,5616,22329,-63,6263,9378,-28252,20390,-10356,-18730,1893
67,1231,1232,3751,5616,22329,0,6263,9378,-28252,20342,-10248,-18676,1911
68,1234,1236,3751,5616,22329,15,6263,9378,-28252,20342,-10248,-18676,1908
69,1237,1239,3751,5616,22329,-63,6263,9378,-28252,20306,-10302,-18910,1884
70,1241,1242,3751,5616,22329,-175,6263,9378,-28252,20306,-10302,-18910,1874
71,1244,1246,3751,5616,22329,303,6263,9378,-28252,20240,-10446,-18820,1895
72,1247,1249,3751,5616,22329,-95,6263,9378,-28252,20240,-10446,-18820,1913
73,1251,1252,3751,5616,22329,-63,6263,9378,-28252,20264,-10404,-18808,1906
74,1254,1256,3751,5616,22329,-111,6263,9378,-28252,20270,-10183,-18730,1886
75,1257,1259,3751,5616,22329,0,6263,9378,-28252,20270,-10183,-18730,1880
76,1261,1262,3751,5616,22329,-63,6263,9378,-28252,20276,-10189,-18628,1893
77,1264,1266,3751,5616,22329,47,6263,9378,-28252,20276,-10189,-18628,1902
78,1267,1269,3751,5616,22329,0,6263,9378,-28252,20336,-10332,-18616,1905
79,1271,1272,3751,5616,22329,-111,6263,9378,-28252,20336,-10332,-18616,1887
80,1274,1276,3751,5616,22329,63,6263,9378,-28252,20384,-10266,-18634,1873
81,1277,1279,3751,5616,22329,255,6263,9378,-28252,20384,-10266,-18634,1893
82,1281,1282,3751,5616,22329,31,6263,9378,-28252,20246,-10338,-18605,1914
83,1284,1286,3751,5616,22329,-31,6263,9378,-28252,20246,-10338,-18605,1899
84,1287,1289,3751,5616,22329,0,6263,9378,-28252,20276,-10290,-18449,1887
85,1291,1292,3751,5616,22329,-95,6263,9378,-28252,20276,-10290,-18449,1880
86,1294,1296,3751,5616,22329,-271,6263,9378,-28252,20324,-10326,-18521,1893
87,1297,1299,3751,5616,22329,0,6263,9378,-28252,20324,-10326,-18521,1902
88,1301,1303,3751,5616,22329,-95,6263,9378,-28252,20306,-10314,-18395,1903
89,1304,1306,3751,5616,22329,319,6263,9378,-28252,20306,-10314,-18395,1883
90,1307,1309,3751,5616,22329,-191,6263,9378,-28252,20342,-10296,-18503,1870
91,1311,1313,3751,5616,22329,15,6263,9378,-28252,20342,-10296,-18503,1896
92,1314,1316,3751,5616,22329,0,6263,9378,-28252,20180,-10260,-18455,1906
93,1317,1319,3751,5616,22329,-159,6263,9378,-28252,20180,-10260,-18455,1899
94,1321,1323,3751,5616,22329,-63,6263,9378,-28252,20312,-10386,-18341,1886
95,1324,1326,3751,5616,22329,0,6263,9378,-28252,20312,-10386,-18341,1871
96,1327,1329,3751,5616,22329,15,6263,9378,-28252,20234,-10356,-18605,1893
97,1331,1333,3751,5616,22329,-31,6263,9378,-28252,20234,-10356,-18605,1913
98,1334,1336,3751,5616,22329,15,6263,9378,-28252,20354,-10314,-18754,1899
99,1338,1339,3751,5616,22329,-111,6263,9378,-28252,20354,-10290,-18497,1883
100,1341,1343,3751,5616,22329,15,6263,9378,-28252,20162,-10290,-18497,1879
101,1344,1346,3751,5616,22329,255,6263,9378,-28252,20306,-10332,-18832,1890
102,1348,1349,3751,5616,22329,-255,6263,9378,-28252,20306,-10332,-18832,1902
103,1351,1353,3751,5616,22329,-95,6263,9378,-28252,20294,-10326,-18742,1899
104,1354,1356,3751,5616,22329,0,6263,9378,-28252,20294,-10326,-18742,1883
105,1358,1359,3751,5616,22329,47,6263,9378,-28252,20252,-10314,-18587,1879
106,1361,1363,3751,5616,22329,-239,6263,9378,-28252,20252,-10314,-18587,1892
107,1364,1366,3751,5616,22329,-303,6263,9378,-28252,20402,-10356,-18605,1909
108,1368,1369,3751,5616,22329,-79,6263,9378,-28252,20402,-10356,-18605,1898
109,1371,1373,3751,5616,22329,175,6263,9378,-28252,20252,-10326,-18515,1883
110,1374,1376,3751,5616,22329,-111,6263,9378,-28252,20252,-10326,-18515,1874
111,1378,1379,3751,5616,22329,-159,6263,9378,-28252,20312,-10344,-18575,1891
112,1381,1383,3751,5616,22329,-47,6263,9378,-28252,20312,-10344,-18575,1900
113,1384,1386,3751,5616,22329,-239,6263,9378,-28252,20336,-10242,-18605,1896
114,1388,1389,3751,5616,22329,-127,6263,9378,-28252,20336,-10242,-18605,1880
115,1391,1393,3751,5616,22329,0,6263,9378,-28252,20462,-10320,-18509,1875
116,1394,1396,3751,5616,22329,31,6263,9378,-28252,20462,-10320,-18509,1892
117,1398,1399,3751,5616,22329,15,6263,9378,-28252,20330,-10308,-18317,1904
118,1401,1403,3751,5616,22329,0,6263,9378,-28252,20330,-10308,-18317,1901
119,1404,1406,3751,5616,22329,79,6263,9378,-28252,20288,-10278,-18455,1882
120,1408,1409,3751,5616,22329,31,6263,9378,-28252,20288,-10278,-18455,1871
121,1411,1413,3751,5616,22329,-143,6263,9378,-28252,20318,-10338,-18281,1894
122,1414,1416,3751,5616,22329,287,6263,9378,-28252,20318,-10338,-18281,1909
123,1418,1420,3751,5616,22329,0,6263,9378,-28252,20288,-10428,-18509,1900
124,1421,1423,3751,5616,22329,-79,6263,9378,-28252,20288,-10428,-18509,1879
125,1424,1426,3751,5616,22329,47,6263,9378,-28252,20402,-10242,-18515,1874
126,1428,1430,3751,5616,22329,-127,6263,9378,-28252,20264,-10398,-18664,1892
127,1431,1433,3751,5616,22329,-47,6263,9378,-28252,20264,-10398,-18664,1905
128,1434,1436,3751,5616,22329,-31,6263,9378,-28252,20276,-10386,-18760,1897
129,1438,1440,3751,5616,22329,0,6263,9378,-28252,20276,-10386,-18760,1879
130,1441,1443,3751,5616,22329,383,6263,9378,-28252,20312,-10374,-18766,1878
131,1444,1446,3751,5616,22329,0,6263,9378,-28252,20312,-10374,-18766,1892
132,1448,1450,3751,5616,22329,63,6263,9378,-28252,20246,-10392,-18497,1908
133,1451,1453,3751,5616,22329,-175,6263,9378,-28252,20246,-10392,-18497,1897
134,1455,1456,3751,5616,22329,-175,6263,9378,-28252,20264,-10350,-18611,1879
135,1458,1460,3751,5616,22329,-111,6263,9378,-28252,20264,-10350,-18611,1868
136,1461,1463,3751,5616,22329,0,6263,9378,-28252,20276,-10446,-18611,1891
137,1465,1466,3751,5616,22329,-95,6263,9378,-28252,20276,-10446,-18611,1900
138,1468,1470,3751,5616,22329,0,6263,9378,-28252,20330,-10386,-18700,1897
139,1471,1473,3751,5616,22329,0,6263,9378,-28252,20330,-10386,-18700,1878
140,1475,1476,3751,5616,22329,0,6263,9378,-28252,20426,-10422,-18467,1878
141,1478,1480,3751,5616,22329,0,6263,9378,-28252,20426,-10422,-18467,1892
142,1481,1483,3751,5616,22329,271,6263,9378,-28252,20384,-10344,-18742,1907
143,1485,1486,3751,5616,22329,-159,6263,9378,-28252,20384,-10344,-18742,1896
144,1488,1490,3751,5616,22329,-175,6263,9378,-28252,20462,-10464,-18616,1877
145,1491,1493,3751,5616,22329,-239,6263,9378,-28252,20462,-10464,-18616,1876
146,1495,1496,3751,5616,22329,-95,6263,9378,-28252,20276,-10380,-18790,1890
147,1498,1500,3751,5616,22329,-79,6263,9378,-28252,20276,-10380,-18790,1906
148,1501,1503,3751,5616,22329,-127,6263,9378,-28252,20312,-10278,-18622,1892
149,1505,1506,3751,5616,22329,-111,6263,9378,-28252,20312,-10278,-18622,1877
150,1508,1510,3751,5616,22329,159,6263,9378,-28252,20270,-10386,-18658,1875
151,1511,1513,3751,5616,22329,0,6263,9378,-28252,20270,-10356,-18407,1890
152,1515,1516,3751,5616,22329,-79,6263,9378,-28252,20216,-10356,-18407,1906
153,1518,1520,3751,5616,22329,63,6263,9378,-28252,20204,-10278,-18497,1894
154,1521,1523,3751,5616,22329,-63,6263,9378,-28252,20204,-10278,-18497,1875
155,1525,1526,3751,5616,22329,-95,6263,9378,-28252,20348,-10284,-18329,1871
156,1528,1530,3751,5616,22329,15,6263,9378,-28252,20348,-10284,-18329,1892
157,1531,1533,3751,5616,22329,-191,6263,9378,-28252,20240,-10338,-18371,1902
158,1535,1537,3751,5616,22329,0,6263,9378,-28252,20240,-10338,-18371,1896
159,1538,1540,3751,5616,22329,-335,6263,9378,-28252,20102,-10153,-18461,1873
160,1541,1543,3751,5616,22329,-95,6263,9378,-28252,20102,-10153,-18461,1875
161,1545,1547,3751,5616,22329,-191,6263,9378,-28252,20144,-10320,-18371,1892
162,1548,1550,3751,5616,22329,-143,6263,9378,-28252,20144,-10320,-18371,1906
163,1551,1553,3751,5616,22329,175,6263,9378,-28252,20198,-10248,-18503,1894
164,1555,1557,3751,5616,22329,0,6263,9378,-28252,20198,-10248,-18503,1877
165,1558,1560,3751,5616,22329,31,6263,9378,-28252,20192,-10392,-18389,1875
166,1561,1563,3751,5616,22329,-191,6263,9378,-28252,20192,-10392,-18389,1891
167,1565,1567,3751,5616,22329,-159,6263,9378,-28252,20180,-10416,-18533,1897
168,1568,1570,3751,5616,22329,-127,6263,9378,-28252,20180,-10416,-18533,1892
169,1572,1573,3751,5616,22329,-239,6263,9378,-28252,20108,-10338,-18796,1878
170,1575,1577,3751,5616,22329,-175,6263,9378,-28252,20108,-10338,-18796,1869
171,1578,1580,3751,5616,22329,111,6263,9378,-28252,20228,-10494,-18599,1892
172,1582,1583,3751,5616,22329,-47,6263,9378,-28252,20228,-10494,-18599,1910
173,1585,1587,3751,5616,22329,0,6263,9378,-28252,20108,-10422,-18712,1893
174,1588,1590,3751,5616,22329,-207,6263,9378,-28252,20108,-10422,-18712,1875
175,1592,1593,3751,5616,22329,-127,6263,9378,-28252,20216,-10266,-18611,1870
176,1595,1597,3751,5616,22329,-207,6263,9378,-28252,20216,-10266,-18611,1893
177,1598,1600,3751,5616,22329,79,6263,9378,-28252,20096,-10242,-18766,1906
178,1602,1603,3751,5616,22329,-207,6263,9378,-28252,20240,-10356,-18652,1892
179,1605,1607,3751,5616,22329,-95,6263,9378,-28252,20240,-10356,-18652,1874
180,1608,1610,3751,5616,22329,0,6263,9378,-28252,20378,-10512,-18593,1876
181,1612,1613,3751,5616,22329,-111,6263,9378,-28252,20378,-10512,-18593,1891
182,1615,1617,3751,5616,22329,-111,6263,9378,-28252,20432,-10398,-18766,1907
183,1618,1620,3751,5616,22329,-79,6263,9378,-28252,20432,-10398,-18766,1891
184,1622,1623,3751,5616,22329,0,6263,9378,-28252,20366,-10404,-18778,1874
185,1625,1627,3751,5616,22329,-143,6263,9378,-28252,20366,-10404,-18778,1873
186,1628,1630,3751,5616,22329,95,6263,9378,-28252,20192,-10290,-18503,1890
187,1632,1633,3751,5616,22329,-63,6263,9378,-28252,20192,-10290,-18503,1904
188,1635,1637,3751,5616,22329,-319,6263,9378,-28252,20204,-10392,-18748,1892
189,1638,1640,3751,5616,22329,-79,6263,9378,-28252,20204,-10392,-18748,1875
190,1642,1643,3751,5616,22329,0,6263,9378,-28252,20384,-10308,-18575,1872
191,1645,1647,3751,5616,22329,95,6263,9378,-28252,20384,-10308,-18575,1893
192,1648,1650,3751,5616,22329,0,6263,9378,-28252,20348,-10452,-18599,1904
193,1652,1654,3751,5616,22329,0,6263,9378,-28252,20348,-10452,-18599,1890
194,1655,1657,3751,5616,22329,-239,6263,9378,-28252,20300,-10398,-18539,1871
195,1658,1660,3751,5616,22329,31,6263,9378,-28252,20300,-10398,-18539,1872
196,1662,1664,3751,5616,22329,-63,6263,9378,-28252,20408,-10404,-18551,1895
197,1665,1667,3751,5616,22329,79,6263,9378,-28252,20408,-10404,-18551,1906
198,1668,1670,3751,5616,22329,-223,6263,9378,-28252,20336,-10422,-18557,1891
199,1672,1674,3751,5616,22329,0,6263,9378,-28252,20336,-10422,-18557,1874
200,1675,1677,3751,5616,22329,-255,6263,9378,-28252,20348,-10374,-18934,1871
201,1678,1680,3751,5616,22329,-63,6263,9378,-28252,20348,-10374,-18934,1893
202,1682,1684,3751,5616,22329,0,6263,9378,-28252,20288,-10290,-18634,1904
203,1685,1687,3751,5616,22329,-47,6263,9378,-28252,20288,-10290,-18611,1890
204,1689,1690,3751,5616,22329,463,6263,9378,-28252,20366,-10225,-18611,1870
205,1692,1694,3751,5616,22329,31,6263,9378,-28252,20360,-10123,-18269,1876
206,1695,1697,3751,5616,22329,-143,6263,9378,-28252,20360,-10123,-18269,1893
207,1699,1700,3751,5616,22329,15,6263,9378,-28252,20366,-10183,-18473,1901
208,1702,1704,3751,5616,22329,143,6263,9378,-28252,20366,-10183,-18473,1890
209,1705,1707,3751,5616,22329,-47,6263,9378,-28252,20318,-10237,-18622,1871
210,1709,1710,3751,5616,22329,-239,6263,9378,-28252,20318,-10237,-18622,1876
211,1712,1714,3751,5616,22329,-239,6263,9378,-28252,20216,-10356,-18563,1894
212,1715,1717,3751,5616,22329,127,6263,9378,-28252,20216,-10356,-18563,1905
213,1719,1720,3751,5616,22329,31,6263,9378,-28252,20342,-10302,-18521,1888
214,1722,1724,3751,5616,22329,-191,6263,9378,-28252,20342,-10302,-18521,1872
215,1725,1727,3751,5616,22329,-111,6263,9378,-28252,20270,-10332,-18557,1870
216,1729,1730,3751,5616,22329,-287,6263,9378,-28252,20270,-10332,-18557,1893
217,1732,1734,3751,5616,22329,15,6263,9378,-28252,20186,-10290,-18593,1902
218,1735,1737,3751,5616,22329,15,6263,9378,-28252,20186,-10290,-18593,1888
219,1739,1740,3751,5616,22329,159,6263,9378,-28252,20312,-10219,-18652,1871
220,1742,1744,3751,5616,22329,-191,6263,9378,-28252,20312,-10219,-18652,1874
221,1745,1747,3751,5616,22329,0,6263,9378,-28252,20408,-10260,-18796,1893
222,1749,1750,3751,5616,22329,-111,6263,9378,-28252,20408,-10260,-18796,1907
223,1752,1754,3751,5616,22329,0,6263,9378,-28252,20300,-10278,-18832,1889
224,1755,1757,3751,5616,22329,63,6263,9378,-28252,20300,-10278,-18832,1872
225,1759,1760,3751,5616,22329,-143,6263,9378,-28252,20324,-10368,-18593,1870
226,1762,1764,3751,5616,22329,-47,6263,9378,-28252,20324,-10368,-18593,1895
227,1765,1767,3751,5616,22329,-239,6263,9378,-28252,20414,-10278,-18766,1900
228,1769,1771,3751,5616,22329,-79,6263,9378,-28252,20414,-10278,-18766,1887
229,1772,1774,3751,5616,22329,-143,6263,9378,-28252,20186,-10476,-18599,1871
230,1775,1777,3751,5616,22329,15,6263,9378,-28252,20378,-10344,-18766,1873
231,1779,1781,3751,5616,22329,-143,6263,9378,-28252,20378,-10344,-18766,1895
232,1782,1784,3751,5616,22329,255,6263,9378,-28252,20252,-10302,-18587,1906
233,1785,1787,3751,5616,22329,-15,6263,9378,-28252,20252,-10302,-18587,1887
234,1789,1791,3751,5616,22329,31,6263,9378,-28252,20324,-10488,-18515,1869
235,1792,1794,3751,5616,22329,-95,6263,9378,-28252,20324,-10488,-18515,1875
236,1795,1797,3751,5616,22329,0,6263,9378,-28252,20168,-10320,-18652,1892
237,1799,1801,3751,5616,22329,-255,6263,9378,-28252,20168,-10320,-18652,1904
238,1802,1804,3751,5616,22329,-175,6263,9378,-28252,20294,-10266,-18652,1886
239,1806,1807,3751,5616,22329,-127,6263,9378,-28252,20294,-10266,-18652,1870
240,1809,1811,3751,5616,22329,-31,6263,9378,-28252,20264,-10422,-18886,1873
241,1812,1814,3751,5616,22329,-175,6263,9378,-28252,20264,-10422,-18886,1893
242,1816,1817,3751,5616,22329,-15,6263,9378,-28252,20222,-10380,-18712,1899
243,1819,1821,3751,5616,22329,-15,6263,9378,-28252,20222,-10380,-18712,1888
244,1822,1824,3751,5616,22329,-143,6263,9378,-28252,20168,-10458,-18515,1870
245,1826,1827,3751,5616,22329,31,6263,9378,-28252,20168,-10458,-18515,1874
246,1829,1831,3751,5616,22329,-111,6263,9378,-28252,20300,-10260,-18640,1895
247,1832,1834,3751,5616,22329,255,6263,9378,-28252,20300,-10260,-18640,1895
248,1836,1837,3751,5616,22329,-79,6263,9378,-28252,20330,-10368,-18688,1887
249,1839,1841,3751,5616,22329,0,6263,9378,-28252,20330,-10368,-18688,1871
250,1842,1844,3751,5616,22329,0,6263,9378,-28252,20306,-10566,-18712,1874
251,1846,1847,3751,5616,22329,-175,6263,9378,-28252,20306,-10566,-18712,1894
252,1849,1851,3751,5616,22329,-31,6263,9378,-28252,20384,-10225,-18581,1901
253,1852,1854,3751,5616,22329,111,6263,9378,-28252,20384,-10225,-18581,1886
254,1856,1857,3751,5616,22329,-239,6263,9378,-28252,20336,-10422,-18473,1868
255,1859,1861,3751,5616,22329,-47,6263,9378,-28252,20336,-10422,-18922,1872
256,1862,1864,3751,5616,22329,-303,6263,9378,-28252,20270,-10380,-18922,1894
257,1866,1867,3751,5616,22329,-63,6263,9378,-28252,20204,-10308,-18748,1898
258,1869,1871,3751,5616,22329,-143,6263,9378,-28252,20204,-10308,-18748,1886
259,1872,1874,3751,5616,22329,-63,6263,9378,-28252,20306,-10404,-18533,1870
260,1876,1877,3751,5616,22329,-63,6263,9378,-28252,20306,-10404,-18533,1874
261,1879,1881,3751,5616,22329,-111,6263,9378,-28252,20222,-10237,-18784,1895
262,1882,1884,3751,5616,22329,-191,6263,9378,-28252,20222,-10237,-18784,1902
263,1886,1888,3751,5616,22329,-287,6263,9378,-28252,20192,-10428,-18437,1886
264,1889,1891,3751,5616,22329,-31,6263,9378,-28252,20192,-10428,-18437,1873
265,1892,1894,3751,5616,22329,-79,6263,9378,-28252,20300,-10237,-18814,1874
266,1896,1898,3751,5616,22329,-95,6263,9378,-28252,20300,-10237,-18814,1896
267,1899,1901,3751,5616,22329,-175,6263,9378,-28252,20402,-10147,-18599,1901
268,1902,1904,3751,5616,22329,47,6263,9378,-28252,20402,-10147,-18599,1885
269,1906,1908,3751,5616,22329,95,6263,9378,-28252,20396,-10248,-18658,1868
270,1909,1911,3751,5616,22329,0,6263,9378,-28252,20396,-10248,-18658,1875
271,1912,1914,3751,5616,22329,-47,6263,9378,-28252,20300,-10242,-18832,1895
272,1916,1918,3751,5616,22329,31,6263,9378,-28252,20300,-10242,-18832,1902
273,1919,1921,3751,5616,22329,47,6263,9378,-28252,20378,-10075,-18652,1884
274,1923,1924,3751,5616,22329,-159,6263,9378,-28252,20378,-10075,-18652,1864
275,1926,1928,3751,5616,22329,-175,6263,9378,-28252,20246,-10195,-18587,1876
276,1929,1931,3751,5616,22329,127,6263,9378,-28252,20246,-10195,-18587,1894
277,1933,1934,3751,5616,22329,-239,6263,9378,-28252,20264,-10332,-18575,1901
278,1936,1938,3751,5616,22329,79,6263,9378,-28252,20264,-10332,-18575,1885
279,1939,1941,3751,5616,22329,15,6263,9378,-28252,20318,-10428,-18539,1868
280,1943,1944,3751,5616,22329,0,6263,9378,-28252,20318,-10428,-18539,1875
281,1946,1948,3751,5616,22329,47,6263,9378,-28252,20324,-10362,-18521,1895
282,1949,1951,3751,5616,22329,-15,6263,9378,-28252,20318,-10242,-18874,1893
283,1953,1954,3751,5616,22329,15,6263,9378,-28252,20318,-10242,-18874,1884
284,1956,1958,3751,5616,22329,0,6263,9378,-28252,20318,-10153,-18593,1869
285,1959,1961,3751,5616,22329,63,6263,9378,-28252,20318,-10153,-18593,1873
286,1963,1964,3751,5616,22329,463,6263,9378,-28252,20204,-10350,-18994,1896
287,1966,1968,3751,5616,22329,31,6263,9378,-28252,20204,-10350,-18994,1901
288,1969,1971,3751,5616,22329,63,6263,9378,-28252,20312,-10278,-18700,1884
289,1973,1974,3751,5616,22329,0,6263,9378,-28252,20312,-10278,-18700,1868
290,1976,1978,3751,5616,22329,-47,6263,9378,-28252,20354,-10231,-18886,1875
291,1979,1981,3751,5616,22329,-111,6263,9378,-28252,20354,-10231,-18886,1894
292,1983,1984,3751,5616,22329,-127,6263,9378,-28252,20396,-10213,-18910,1896
293,1986,1988,3751,5616,22329,0,6263,9378,-28252,20396,-10213,-18910,1883
294,1989,1991,3751,5616,22329,351,6263,9378,-28252,20450,-10284,-18826,1868
295,1993,1994,3751,5616,22329,-127,6263,9378,-28252,20450,-10284,-18826,1875
296,1996,1998,3751,5616,22329,-79,6263,9378,-28252,20366,-10398,-18982,1896
297,1999,2001,3751,5616,22329,-191,6263,9378,-28252,20366,-10398,-18982,1905
298,2003,2005,3751,5616,22329,-127,6263,9378,-28252,20468,-10644,-18988,1881
299,2006,2008,3751,5616,22329,47,6263,9378,-28252,20468,-10644,-18988,1861
300,2009,2011,3751,5616,22329,-63,6263,9378,-28252,20474,-10374,-18922,1875
301,2013,2015,3751,5616,22329,0,6263,9378,-28252,20474,-10374,-18922,1897
302,2016,2018,3751,5616,22329,-31,6263,9378,-28252,20384,-10320,-18850,1897
303,2019,2021,3751,5616,22329,207,6263,9378,-28252,20384,-10320,-18850,1883
304,2023,2025,3751,5616,22329,31,6263,9378,-28252,20300,-10272,-18832,1867
305,2026,2028,3751,5616,22329,0,6263,9378,-28252,20300,-10272,-18832,1876
306,2029,2031,3751,5616,22329,95,6263,9378,-28252,20312,-10231,-18563,1897
307,2033,2035,3751,5616,22329,-175,6263,9378,-28252,20312,-10231,-20095,1900
308,2036,2038,3751,5616,22329,-79,6263,9378,-28252,20216,-10320,-18796,1882
309,2040,2041,3751,5616,22329,-207,6263,9378,-28252,20300,-10195,-18808,1864
310,2043,2045,3751,5616,22329,-95,6263,9378,-28252,20300,-10195,-18808,1877
311,2046,2048,3751,5616,22329,-63,6263,9378,-28252,20306,-10308,-18796,1895
312,2050,2051,3751,5616,22329,-95,6263,9378,-28252,20306,-10308,-18796,1894
313,2053,2055,3751,5616,22329,-79,6263,9378,-28252,20300,-10153,-18994,1883
314,2056,2058,3751,5616,22329,223,6263,9378,-28252,20300,-10153,-18994,1861
315,2060,2061,3751,5616,22329,-111,6263,9378,-28252,20468,-10320,-18952,1876
316,2063,2065,3751,5616,22329,-79,6263,9378,-28252,20468,-10320,-18952,1897
317,2066,2068,3751,5616,22329,-127,6263,9378,-28252,20372,-10338,-18593,1903
318,2070,2071,3751,5616,22329,0,6263,9378,-28252,20372,-10338,-18593,1881
319,2073,2075,3751,5616,22329,-95,6263,9378,-28252,20491,-10368,-18736,1867
320,2076,2078,3751,5616,22329,-175,6263,9378,-28252,20491,-10368,-18736,1878
321,2080,2081,3751,5616,22329,-351,6263,9378,-28252,20503,-10416,-18886,1897
322,2083,2085,3751,5616,22329,-47,6263,9378,-28252,20503,-10416,-18886,1901
323,2086,2088,3751,5616,22329,-63,6263,9378,-28252,20468,-10488,-18628,1880
324,2090,2091,3751,5616,22329,63,6263,9378,-28252,20468,-10488,-18628,1866
325,2093,2095,3751,5616,22329,-271,6263,9378,-28252,20515,-10416,-18611,1876
326,2096,2098,3751,5616,22329,-111,6263,9378,-28252,20515,-10416,-18611,1896
327,2100,2101,3751,5616,22329,255,6263,9378,-28252,20509,-10392,-18736,1895
328,2103,2105,3751,5616,22329,-95,6263,9378,-28252,20509,-10392,-18736,1881
329,2106,2108,3751,5616,22329,175,6263,9378,-28252,20521,-10428,-18359,1868
330,2110,2111,3751,5616,22329,-175,6263,9378,-28252,20521,-10428,-18359,1878
331,2113,2115,3751,5616,22329,0,6263,9378,-28252,20336,-10320,-18808,1896
332,2116,2118,3751,5616,22329,63,6263,9378,-28252,20336,-10320,-18808,1892
333,2120,2122,3751,5616,22329,47,6263,9378,-28252,20258,-10620,-18605,1881
334,2123,2125,3751,5616,22329,63,6263,9378,-28252,20408,-10302,-18736,1867
335,2126,2128,3751,5616,22329,-143,6263,9378,-28252,20408,-10302,-18736,1875
336,2130,2132,3751,5616,22329,-63,6263,9378,-28252,20420,-10123,-18832,1898
337,2133,2135,3751,5616,22329,-127,6263,9378,-28252,20420,-10123,-18832,1902
338,2136,2138,3751,5616,22329,-111,6263,9378,-28252,20432,-10254,-18838,1880
339,2140,2142,3751,5616,22329,0,6263,9378,-28252,20432,-10254,-18838,1864
340,2143,2145,3751,5616,22329,-111,6263,9378,-28252,20306,-10368,-18850,1877
341,2146,2148,3751,5616,22329,15,6263,9378,-28252,20306,-10368,-18850,1897
342,2150,2152,3751,5616,22329,0,6263,9378,-28252,20240,-10159,-18826,1896
343,2153,2155,3751,5616,22329,-15,6263,9378,-28252,20240,-10159,-18826,1880
344,2157,2158,3751,5616,22329,47,6263,9378,-28252,20372,-10213,-18850,1870
345,2160,2162,3751,5616,22329,143,6263,9378,-28252,20372,-10213,-18850,1876
346,2163,2165,3751,5616,22329,-79,6263,9378,-28252,20270,-10254,-18910,1894
347,2167,2168,3751,5616,22329,15,6263,9378,-28252,20270,-10254,-18910,1897
348,2170,2172,3751,5616,22329,0,6263,9378,-28252,20342,-10260,-18856,1881
349,2173,2175,3751,5616,22329,-63,6263,9378,-28252,20342,-10260,-18856,1859
350,2177,2178,3751,5616,22329,-159,6263,9378,-28252,20360,-10248,-19036,1878
351,2180,2182,3751,5616,22329,-79,6263,9378,-28252,20360,-10248,-19036,1897
352,2183,2185,3751,5616,22329,-79,6263,9378,-28252,20276,-10302,-18748,1894
353,2187,2188,3751,5616,22329,-95,6263,9378,-28252,20276,-10302,-18748,1879
354,2190,2192,3751,5616,22329,-95,6263,9378,-28252,20318,-10147,-18712,1868
355,2193,2195,3751,5616,22329,0,6263,9378,-28252,20318,-10147,-18712,1878
356,2197,2198,3751,5616,22329,-207,6263,9378,-28252,20503,-10242,-18563,1897
357,2200,2202,3751,5616,22329,-95,6263,9378,-28252,20503,-10242,-18563,1892
358,2203,2205,3751,5616,22329,-447,6263,9378,-28252,20270,-10248,-18587,1879
359,2207,2208,3751,5616,22329,-191,6263,9378,-28252,20270,-10248,-18587,1871
360,2210,2212,3751,5616,22329,0,6263,9378,-28252,20300,-10344,-18461,1875
361,2213,2215,3751,5616,22329,-15,6263,9378,-28252,20258,-10488,-18287,1895
362,2217,2218,3751,5616,22329,-175,6263,9378,-28252,20258,-10488,-18287,1897
363,2220,2222,3751,5616,22329,0,6263,9378,-28252,20252,-10278,-18365,1878
364,2223,2225,3751,5616,22329,-287,6263,9378,-28252,20252,-10278,-18365,1868
365,2227,2228,3751,5616,22329,-143,6263,9378,-28252,20396,-10500,-18479,1878
366,2230,2232,3751,5616,22329,0,6263,9378,-28252,20396,-10500,-18479,1898
367,2233,2235,3751,5616,22329,-367,6263,9378,-28252,20210,-10386,-18742,1893
368,2237,2239,3751,5616,22329,95,6263,9378,-28252,20210,-10386,-18742,1878
369,2240,2242,3751,5616,22329,-47,6263,9378,-28252,20204,-10470,-18557,1867
370,2243,2245,3751,5616,22329,0,6263,9378,-28252,20204,-10470,-18557,1877
371,2247,2249,3751,5616,22329,-63,6263,9378,-28252,20282,-10464,-18718,1897
372,2250,2252,3751,5616,22329,-79,6263,9378,-28252,20282,-10464,-18718,1895
373,2253,2255,3751,5616,22329,-95,6263,9378,-28252,20216,-10422,-18796,1878
374,2257,2259,3751,5616,22329,-15,6263,9378,-28252,20216,-10422,-18796,1870
375,2260,2262,3751,5616,22329,-303,6263,9378,-28252,20288,-10177,-18952,1879
376,2263,2265,3751,5616,22329,-159,6263,9378,-28252,20288,-10177,-18952,1896
377,2267,2269,3751,5616,22329,-223,6263,9378,-28252,20300,-10254,-18712,1893
378,2270,2272,3751,5616,22329,-127,6263,9378,-28252,20300,-10254,-18712,1876
379,2274,2275,3751,5616,22329,-255,6263,9378,-28252,20324,-10225,-18365,1869
380,2277,2279,3751,5616,22329,127,6263,9378,-28252,20324,-10225,-18365,1877
381,2280,2282,3751,5616,22329,-191,6263,9378,-28252,20456,-10332,-18958,1892
382,2284,2285,3751,5616,22329,-175,6263,9378,-28252,20456,-10332,-18958,1889
383,2287,2289,3751,5616,22329,-191,6263,9378,-28252,20336,-10254,-18940,1877
384,2290,2292,3751,5616,22329,-111,6263,9378,-28252,20336,-10254,-18940,1858
385,2294,2295,3751,5616,22329,31,6263,9378,-28252,20384,-10296,-18760,1880
386,2297,2299,3751,5616,22329,-175,6263,9378,-28252,20384,-10296,-18742,1898
387,2300,2302,3751,5616,22329,0,6263,9378,-28252,20228,-10332,-18742,1891
388,2304,2305,3751,5616,22329,-95,6263,9378,-28252,20462,-10476,-18952,1878
389,2307,2309,3751,5616,22329,15,6263,9378,-28252,20462,-10476,-18952,1868
390,2310,2312,3751,5616,22329,-223,6263,9378,-28252,20300,-10350,-18760,1879
391,2314,2315,3751,5616,22329,-175,6263,9378,-28252,20300,-10350,-18760,1894
392,2317,2319,3751,5616,22329,-47,6263,9378,-28252,20150,-10392,-18760,1896
393,2320,2322,3751,5616,22329,-95,6263,9378,-28252,20150,-10392,-18760,1877
394,2324,2325,3751,5616,22329,95,6263,9378,-28252,20414,-10242,-18742,1863
395,2327,2329,3751,5616,22329,111,6263,9378,-28252,20414,-10242,-18742,1880
396,2330,2332,3751,5616,22329,15,6263,9378,-28252,20228,-10344,-18646,1897
397,2334,2335,3751,5616,22329,63,6263,9378,-28252,20228,-10344,-18646,1896
398,2337,2339,3751,5616,22329,-143,6263,9378,-28252,20384,-10171,-18646,1876
399,2340,2342,3751,5616,22329,-111,6263,9378,-28252,20384,-10171,-18646,1865
400,2344,2345,3751,5616,22329,-47,6263,9378,-28252,20372,-10254,-18652,1879
401,2347,2349,3751,5616,22329,-143,6263,9378,-28252,20372,-10254,-18652,1897
402,2350,2352,3751,5616,22329,-143,6263,9378,-28252,20360,-10225,-18820,1894
403,2354,2356,3751,5616,22329,207,6263,9378,-28252,20360,-10225,-18820,1876
404,2357,2359,3751,5616,22329,-175,6263,9378,-28252,20336,-10272,-18682,1861
405,2360,2362,3751,5616,22329,-47,6263,9378,-28252,20336,-10272,-18682,1880
406,2364,2366,3751,5616,22329,63,6263,9378,-28252,20384,-10308,-18479,1900
407,2367,2369,3751,5616,22329,-111,6263,9378,-28252,20384,-10308,-18479,1889
408,2370,2372,3751,5616,22329,-63,6263,9378,-28252,20228,-10452,-18383,1875
409,2374,2376,3751,5616,22329,79,6263,9378,-28252,20228,-10452,-18383,1869
410,2377,2379,3751,5616,22329,-79,6263,9378,-28252,20342,-10470,-18491,1880
411,2380,2382,3751,5616,22329,111,6263,9378,-28252,20342,-10470,-18491,1899
412,2384,2386,3751,5616,22329,0,6263,9378,-28252,20474,-10404,-18257,1888
413,2387,2389,3751,5616,22329,0,6263,9378,-28252,20384,-10183,-18581,1876
414,2391,2392,3751,5616,22329,-175,6263,9378,-28252,20384,-10183,-18581,1871
415,2394,2396,3751,5616,22329,-191,6263,9378,-28252,20509,-10338,-18557,1880
416,2397,2399,3751,5616,22329,0,6263,9378,-28252,20509,-10338,-18557,1897
417,2401,2402,3751,5616,22329,47,6263,9378,-28252,20372,-10075,-18640,1894
418,2404,2406,3751,5616,22329,-143,6263,9378,-28252,20372,-10075,-18640,1874
419,2407,2409,3751,5616,22329,79,6263,9378,-28252,20306,-10177,-18664,1857
420,2411,2412,3751,5616,22329,223,6263,9378,-28252,20306,-10177,-18664,1880
421,2414,2416,3751,5616,22329,-95,6263,9378,-28252,20168,-10159,-18664,1896
422,2417,2419,3751,5616,22329,-175,6263,9378,-28252,20168,-10159,-18664,1893
423,2421,2422,3751,5616,22329,-111,6263,9378,-28252,20234,-10266,-18826,1874
424,2424,2426,3751,5616,22329,0,6263,9378,-28252,20234,-10266,-18826,1862
425,2427,2429,3751,5616,22329,-63,6263,9378,-28252,20384,-10368,-18886,1881
426,2431,2432,3751,5616,22329,79,6263,9378,-28252,20384,-10368,-18886,1899
427,2434,2436,3751,5616,22329,-127,6263,9378,-28252,20228,-10195,-18862,1892
428,2437,2439,3751,5616,22329,-111,6263,9378,-28252,20228,-10195,-18862,1875
429,2441,2442,3751,5616,22329,-303,6263,9378,-28252,20366,-10171,-18682,1860
430,2444,2446,3751,5616,22329,-191,6263,9378,-28252,20366,-10171,-18682,1880
431,2447,2449,3751,5616,22329,31,6263,9378,-28252,20180,-10308,-18814,1898
432,2451,2452,3751,5616,22329,-159,6263,9378,-28252,20180,-10308,-18814,1894
433,2454,2456,3751,5616,22329,-223,6263,9378,-28252,20264,-10314,-18748,1874
434,2457,2459,3751,5616,22329,15,6263,9378,-28252,20264,-10314,-18748,1862
435,2461,2462,3751,5616,22329,-79,6263,9378,-28252,20324,-10189,-18646,1882
436,2464,2466,3751,5616,22329,-159,6263,9378,-28252,20324,-10189,-18646,1900
437,2467,2469,3751,5616,22329,31,6263,9378,-28252,20390,-10147,-18724,1894
438,2471,2473,3751,5616,22329,0,6263,9378,-28252,20390,-10147,-18724,1873
439,2474,2476,3751,5616,22329,63,6263,9378,-28252,20456,-10159,-18533,1867
440,2477,2479,3751,5616,22329,79,6263,9378,-28252,20378,-10213,-18862,1881
441,2481,2483,3751,5616,22329,271,6263,9378,-28252,20378,-10213,-18862,1896
442,2484,2486,3751,5616,22329,-143,6263,9378,-28252,20240,-10404,-18820,1892
443,2487,2489,3751,5616,22329,-31,6263,9378,-28252,20240,-10404,-18820,1873
444,2491,2493,3751,5616,22329,-143,6263,9378,-28252,20240,-10117,-18634,1861
445,2494,2496,3751,5616,22329,-111,6263,9378,-28252,20240,-10117,-18634,1883
446,2497,2499,3751,5616,22329,-47,6263,9378,-28252,20282,-10290,-18646,1899
447,2501,2503,3751,5616,22329,-415,6263,9378,-28252,20282,-10290,-18646,1889
448,2504,2506,3751,5616,22329,-95,6263,9378,-28252,20264,-10242,-18407,1875
449,2508,2509,3751,5616,22329,-79,6263,9378,-28252,20264,-10242,-18407,1861
450,2511,2513,3751,5616,22329,-95,6263,9378,-28252,20354,-10290,-18407,1883
451,2514,2516,3751,5616,22329,-223,6263,9378,-28252,20354,-10290,-18407,1896
452,2518,2519,3751,5616,22329,-63,6263,9378,-28252,20282,-10272,-18551,1892
453,2521,2523,3751,5616,22329,207,6263,9378,-28252,20282,-10272,-18551,1874
454,2524,2526,3751,5616,22329,-191,6263,9378,-28252,20414,-10254,-18431,1865
455,2528,2529,3751,5616,22329,63,6263,9378,-28252,20414,-10254,-18431,1884
456,2531,2533,3751,5616,22329,0,6263,9378,-28252,20270,-10512,-18425,1901
457,2534,2536,3751,5616,22329,-95,6263,9378,-28252,20270,-10512,-18425,1888
458,2538,2539,3751,5616,22329,79,6263,9378,-28252,20408,-10368,-18503,1873
459,2541,2543,3751,5616,22329,-15,6263,9378,-28252,20408,-10368,-18503,1871
460,2544,2546,3751,5616,22329,-127,6263,9378,-28252,20551,-10248,-18599,1881
461,2548,2549,3751,5616,22329,79,6263,9378,-28252,20551,-10248,-18599,1901
462,2551,2553,3751,5616,22329,-127,6263,9378,-28252,20198,-10284,-18688,1885
463,2554,2556,3751,5616,22329,-31,6263,9378,-28252,20198,-10284,-18688,1873
464,2558,2559,3751,5616,22329,-431,6263,9378,-28252,20306,-10470,-18509,1859
465,2561,2563,3751,5616,22329,-111,6263,9378,-28252,20306,-10458,-18575,1882
466,2564,2566,3751,5616,22329,-111,6263,9378,-28252,20456,-10458,-18575,1893
467,2568,2569,3751,5616,22329,15,6263,9378,-28252,20258,-10488,-18646,1891
468,2571,2573,3751,5616,22329,-95,6263,9378,-28252,20258,-10488,-18646,1873
469,2574,2576,3751,5616,22329,-159,6263,9378,-28252,20414,-10332,-18485,1861
470,2578,2579,3751,5616,22329,-191,6263,9378,-28252,20414,-10332,-18485,1885
471,2581,2583,3751,5616,22329,-31,6263,9378,-28252,20474,-10476,-18419,1893
472,2584,2586,3751,5616,22329,31,6263,9378,-28252,20474,-10476,-18419,1892
473,2588,2590,3751,5616,22329,-63,6263,9378,-28252,20480,-10272,-18329,1873
474,2591,2593,3751,5616,22329,-111,6263,9378,-28252,20480,-10272,-18329,1861
475,2594,2596,3751,5616,22329,-47,6263,9378,-28252,20515,-10326,-18545,1885
476,2598,2600,3751,5616,22329,-79,6263,9378,-28252,20515,-10326,-18545,1900
477,2601,2603,3751,5616,22329,-127,6263,9378,-28252,20545,-10434,-18521,1892
478,2604,2606,3751,5616,22329,-47,6263,9378,-28252,20545,-10434,-18521,1871
479,2608,2610,3751,5616,22329,0,6263,9378,-28252,20186,-10404,-18682,1869
480,2611,2613,3751,5616,22329,0,6263,9378,-28252,20186,-10404,-18682,1884
481,2614,2616,3751,5616,22329,0,6263,9378,-28252,20252,-10374,-18886,1891
482,2618,2620,3751,5616,22329,15,6263,9378,-28252,20252,-10374,-18886,1890
483,2621,2623,3751,5616,22329,-79,6263,9378,-28252,20300,-10326,-18700,1871
484,2625,2626,3751,5616,22329,-383,6263,9378,-28252,20300,-10326,-18700,1860
485,2628,2630,3751,5616,22329,-351,6263,9378,-28252,20210,-10165,-18646,1885
486,2631,2633,3751,5616,22329,-63,6263,9378,-28252,20210,-10165,-18646,1901
487,2635,2636,3751,5616,22329,63,6263,9378,-28252,20025,-10296,-18748,1891
488,2638,2640,3751,5616,22329,-239,6263,9378,-28252,20025,-10296,-18748,1871
489,2641,2643,3751,5616,22329,31,6263,9378,-28252,20168,-10278,-18916,1868
490,2645,2646,3751,5616,22329,-95,6263,9378,-28252,20168,-10278,-18916,1882
491,2648,2650,3751,5616,22329,-159,6263,9378,-28252,20132,-10356,-18646,1893
492,2651,2653,3751,5616,22329,15,6263,9378,-28252,20402,-10231,-18688,1890
493,2655,2656,3751,5616,22329,127,6263,9378,-28252,20402,-10231,-18688,1868
494,2658,2660,3751,5616,22329,-143,6263,9378,-28252,20282,-10231,-18563,1871
495,2661,2663,3751,5616,22329,15,6263,9378,-28252,20282,-10231,-18563,1884
496,2665,2666,3751,5616,22329,-63,6263,9378,-28252,20288,-10320,-18856,1903
497,2668,2670,3751,5616,22329,-255,6263,9378,-28252,20288,-10320,-18856,1884
498,2671,2673,3751,5616,22329,-31,6263,9378,-28252,20216,-10344,-18862,1867
499,2675,2676,3751,5616,22329,111,6263,9378,-28252,20216,-10344,-18862,1866
500,2678,2680,3751,5616,22329,15,6263,9378,-28252,20132,-10314,-18760,1884
501,2681,2683,3751,5616,22329,159,6263,9378,-28252,20132,-10314,-18760,1899
502,2685,2686,3751,5616,22329,31,6263,9378,-28252,20342,-10093,-18670,1888
503,2688,2690,3751,5616,22329,-143,6263,9378,-28252,20342,-10093,-18670,1869
504,2691,2693,3751,5616,22329,-95,6263,9378,-28252,20366,-10231,-18670,1860
505,2695,2696,3751,5616,22329,-255,6263,9378,-28252,20366,-10231,-18670,1885
506,2698,2700,3751,5616,22329,63,6263,9378,-28252,20306,-10356,-18593,1900
507,2701,2703,3751,5616,22329,-63,6263,9378,-28252,20306,-10356,-18593,1887
508,2705,2707,3751,5616,22329,31,6263,9378,-28252,20342,-10231,-18569,1871
509,2708,2710,3751,5616,22329,-335,6263,9378,-28252,20342,-10231,-18569,1862
510,2711,2713,3751,5616,22329,-159,6263,9378,-28252,20330,-10123,-18688,1885
511,2715,2717,3751,5616,22329,-63,6263,9378,-28252,20330,-10123,-18688,1900
512,2718,2720,3751,5616,22329,-63,6263,9378,-28252,20204,-10248,-18461,1885
513,2721,2723,3751,5616,22329,-175,6263,9378,-28252,20204,-10248,-18461,1870
514,2725,2727,3751,5616,22329,-63,6263,9378,-28252,20324,-10266,-18485,1863
515,2728,2730,3751,5616,22329,111,6263,9378,-28252,20324,-10266,-18485,1885
516,2731,2733,3751,5616,22329,0,6263,9378,-28252,20384,-10242,-18509,1893
517,2735,2737,3751,5616,22329,-191,6263,9378,-28252,20384,-10242,-18676,1885
518,2738,2740,3751,5616,22329,-31,6263,9378,-28252,20396,-10248,-18676,1872
519,2742,2743,3751,5616,22329,111,6263,9378,-28252,20306,-10242,-18748,1867
520,2745,2747,3751,5616,22329,79,6263,9378,-28252,20306,-10242,-18748,1887
521,2748,2750,3751,5616,22329,-47,6263,9378,-28252,20306,-10296,-18832,1900
522,2752,2753,3751,5616,22329,-15,6263,9378,-28252,20306,-10296,-18832,1888
523,2755,2757,3751,5616,22329,-191,6263,9378,-28252,20396,-10272,-18706,1869
524,2758,2760,3751,5616,22329,31,6263,9378,-28252,20396,-10272,-18706,1866
525,2762,2763,3751,5616,22329,-271,6263,9378,-28252,20342,-10410,-18754,1884
526,2765,2767,3751,5616,22329,-47,6263,9378,-28252,20342,-10410,-18754,1897
527,2768,2770,3751,5616,22329,-159,6263,9378,-28252,20354,-10458,-18730,1888
528,2772,2773,3751,5616,22329,223,6263,9378,-28252,20354,-10458,-18730,1868
529,2775,2777,3751,5616,22329,-63,6263,9378,-28252,20336,-10290,-18557,1867
530,2778,2780,3751,5616,22329,-63,6263,9378,-28252,20336,-10290,-18557,1885
531,2782,2783,3751,5616,22329,-79,6263,9378,-28252,20168,-10422,-18563,1902
532,2785,2787,3751,5616,22329,-79,6263,9378,-28252,20168,-10422,-18563,1885
533,2788,2790,3751,5616,22329,95,6263,9378,-28252,20174,-10356,-18485,1865
534,2792,2793,3751,5616,22329,-479,6263,9378,-28252,20174,-10356,-18485,1870
535,2795,2797,3751,5616,22329,63,6263,9378,-28252,20390,-10410,-18628,1885
536,2798,2800,3751,5616,22329,47,6263,9378,-28252,20390,-10410,-18628,1892
537,2802,2803,3751,5616,22329,47,6263,9378,-28252,20162,-10404,-18323,1886
538,2805,2807,3751,5616,22329,79,6263,9378,-28252,20162,-10404,-18323,1868
539,2808,2810,3751,5616,22329,-239,6263,9378,-28252,20240,-10207,-18431,1867
540,2812,2813,3751,5616,22329,-159,6263,9378,-28252,20240,-10207,-18431,1885
541,2815,2817,3751,5616,22329,47,6263,9378,-28252,20180,-10296,-18203,1897
542,2818,2820,3751,5616,22329,15,6263,9378,-28252,20180,-10296,-18203,1885
543,2822,2824,3751,5616,22329,31,6263,9378,-28252,20306,-10242,-18383,1869
544,2825,2827,3751,5616,22329,-95,6263,9378,-28252,20342,-10362,-18293,1869
545,2828,2830,3751,5616,22329,-31,6263,9378,-28252,20342,-10362,-18293,1885
546,2832,2834,3751,5616,22329,-239,6263,9378,-28252,20276,-10410,-18090,1901
547,2835,2837,3751,5616,22329,15,6263,9378,-28252,20276,-10410,-18090,1884
548,2838,2840,3751,5616,22329,-79,6263,9378,-28252,20246,-10248,-18413,1866
549,2842,2844,3751,5616,22329,-111,6263,9378,-28252,20246,-10248,-18413,1870
550,2845,2847,3751,5616,22329,15,6263,9378,-28252,20222,-10434,-18263,1884
551,2848,2850,3751,5616,22329,-63,6263,9378,-28252,20222,-10434,-18263,1898
552,2852,2854,3751,5616,22329,-79,6263,9378,-28252,20330,-10392,-18263,1883
553,2855,2857,3751,5616,22329,-47,6263,9378,-28252,20330,-10392,-18263,1866
554,2859,2860,3751,5616,22329,-95,6263,9378,-28252,20276,-10404,-18377,1866
555,2862,2864,3751,5616,22329,15,6263,9378,-28252,20276,-10404,-18377,1886
556,2865,2867,3751,5616,22329,-95,6263,9378,-28252,20282,-10392,-18287,1901
557,2869,2870,3751,5616,22329,-63,6263,9378,-28252,20282,-10392,-18287,1884
558,2872,2874,3751,5616,22329,-111,6263,9378,-28252,20420,-10296,-18090,1867
559,2875,2877,3751,5616,22329,-31,6263,9378,-28252,20420,-10296,-18090,1865
560,2879,2880,3751,5616,22329,15,6263,9378,-28252,20246,-10386,-18503,1886
561,2882,2884,3751,5616,22329,-111,6263,9378,-28252,20246,-10386,-18503,1898
562,2885,2887,3751,5616,22329,15,6263,9378,-28252,20354,-10500,-18365,1885
563,2889,2890,3751,5616,22329,207,6263,9378,-28252,20354,-10500,-18365,1866
564,2892,2894,3751,5616,22329,-271,6263,9378,-28252,20360,-10386,-18748,1867
565,2895,2897,3751,5616,22329,0,6263,9378,-28252,20360,-10386,-18748,1887
566,2899,2900,3751,5616,22329,-415,6263,9378,-28252,20420,-10566,-18605,1896
567,2902,2904,3751,5616,22329,-287,6263,9378,-28252,20420,-10566,-18605,1880
568,2905,2907,3751,5616,22329,63,6263,9378,-28252,20485,-10560,-18557,1867
569,2909,2910,3751,5616,22329,-191,6263,9378,-28252,20485,-10560,-18557,1867
570,2912,2914,3751,5616,22329,-15,6263,9378,-28252,20294,-10320,-18551,1888
571,2915,2917,3751,5616,22329,0,6263,9378,-28252,20234,-10458,-18485,1901
572,2919,2920,3751,5616,22329,-143,6263,9378,-28252,20234,-10458,-18485,1884
573,2922,2924,3751,5616,22329,-175,6263,9378,-28252,20126,-10356,-18341,1866
574,2925,2927,3751,5616,22329,0,6263,9378,-28252,20126,-10356,-18341,1869
575,2929,2930,3751,5616,22329,-127,6263,9378,-28252,20324,-10398,-18521,1887
576,2932,2934,3751,5616,22329,-31,6263,9378,-28252,20324,-10398,-18521,1891
577,2935,2937,3751,5616,22329,-79,6263,9378,-28252,20096,-10422,-18581,1881
578,2939,2941,3751,5616,22329,-31,6263,9378,-28252,20096,-10422,-18581,1867
579,2942,2944,3751,5616,22329,-143,6263,9378,-28252,20384,-10362,-18503,1868
580,2945,2947,3751,5616,22329,31,6263,9378,-28252,20384,-10362,-18503,1888
581,2949,2951,3751,5616,22329,191,6263,9378,-28252,20192,-10500,-18431,1900
582,2952,2954,3751,5616,22329,-319,6263,9378,-28252,20192,-10500,-18431,1883
583,2955,2957,3751,5616,22329,-79,6263,9378,-28252,20138,-10398,-18317,1866
584,2959,2961,3751,5616,22329,79,6263,9378,-28252,20138,-10398,-18317,1868
585,2962,2964,3751,5616,22329,-47,6263,9378,-28252,20258,-10242,-18299,1888
586,2965,2967,3751,5616,22329,-191,6263,9378,-28252,20258,-10242,-18299,1901
587,2969,2971,3751,5616,22329,271,6263,9378,-28252,20306,-10254,-18299,1881
588,2972,2974,3751,5616,22329,-111,6263,9378,-28252,20306,-10254,-18299,1866
589,2976,2977,3751,5616,22329,-79,6263,9378,-28252,20240,-10225,-18389,1863
590,2979,2981,3751,5616,22329,-223,6263,9378,-28252,20240,-10225,-18389,1889
591,2982,2984,3751,5616,22329,0,6263,9378,-28252,20294,-10374,-18533,1889
592,2986,2987,3751,5616,22329,0,6263,9378,-28252,20294,-10374,-18533,1881
593,2989,2991,3751,5616,22329,-111,6263,9378,-28252,20294,-10165,-18485,1868
594,2992,2994,3751,5616,22329,-31,6263,9378,-28252,20294,-10165,-18485,1863
595,2996,2997,3751,5616,22329,-63,6263,9378,-28252,20162,-10398,-18503,1889
596,2999,3001,3751,5616,22329,15,6263,9378,-28252,20414,-10326,-18359,1900
597,3002,3004,3751,5616,22329,-63,6263,9378,-28252,20414,-10326,-18359,1882
598,3006,3007,3751,5616,22329,15,6263,9378,-28252,20414,-10428,-18359,1865
599,3009,3011,3751,5616,22329,127,6263,9378,-28252,20414,-10428,-18359,1867
600,3012,3014,3751,5616,22329,47,6263,9378,-28252,20480,-10356,-18461,1889
601,3016,3017,3751,5616,22329,-223,6263,9378,-28252,20480,-10356,-18461,1901
602,3019,3021,3751,5616,22329,0,6263,9378,-28252,20324,-10201,-18323,1881
603,3022,3024,3751,5616,22329,79,6263,9378,-28252,20324,-10201,-18323,1862
604,3026,3027,3751,5616,22329,-207,6263,9378,-28252,20294,-10278,-18389,1869
605,3029,3031,3751,5616,22329,-47,6263,9378,-28252,20294,-10278,-18389,1890
606,3032,3034,3751,5616,22329,-127,6263,9378,-28252,20180,-10428,-18437,1895
607,3036,3037,3751,5616,22329,159,6263,9378,-28252,20180,-10428,-18437,1882
608,3039,3041,3751,5616,22329,0,6263,9378,-28252,20348,-10386,-18293,1864
609,3042,3044,3751,5616,22329,-143,6263,9378,-28252,20348,-10386,-18293,1870
610,3046,3047,3751,5616,22329,-159,6263,9378,-28252,20264,-10464,-18652,1890
611,3049,3051,3751,5616,22329,143,6263,9378,-28252,20264,-10464,-18652,1900
612,3052,3054,3751,5616,22329,-207,6263,9378,-28252,20384,-10338,-18383,1881
613,3056,3058,3751,5616,22329,-95,6263,9378,-28252,20384,-10338,-18383,1861
614,3059,3061,3751,5616,22329,-383,6263,9378,-28252,20402,-10374,-18395,1869
615,3062,3064,3751,5616,22329,-15,6263,9378,-28252,20402,-10374,-18395,1890
616,3066,3068,3751,5616,22329,15,6263,9378,-28252,20318,-10320,-18377,1897
617,3069,3071,3751,5616,22329,159,6263,9378,-28252,20318,-10320,-18377,1882
618,3072,3074,3751,5616,22329,-31,6263,9378,-28252,20474,-10332,-18413,1865
619,3076,3078,3751,5616,22329,-63,6263,9378,-28252,20474,-10332,-18413,1870
620,3079,3081,3751,5616,22329,255,6263,9378,-28252,20426,-10362,-18539,1890
621,3082,3084,3751,5616,22329,-47,6263,9378,-28252,20426,-10362,-18539,1898
622,3086,3088,3751,5616,22329,-175,6263,9378,-28252,20318,-10296,-18491,1879
623,3089,3091,3751,5616,22329,-191,6263,9378,-28252,20527,-10440,-18455,1864
624,3093,3094,3751,5616,22329,0,6263,9378,-28252,20527,-10440,-18455,1870
625,3096,3098,3751,5616,22329,-175,6263,9378,-28252,20533,-10248,-18269,1890
626,3099,3101,3751,5616,22329,-127,6263,9378,-28252,20533,-10248,-18269,1894
627,3103,3104,3751,5616,22329,-111,6263,9378,-28252,20474,-10272,-18503,1880
628,3106,3108,3751,5616,22329,0,6263,9378,-28252,20474,-10272,-18503,1859
629,3109,3111,3751,5616,22329,-223,6263,9378,-28252,20402,-10272,-18622,1868
630,3113,3114,3751,5616,22329,0,6263,9378,-28252,20402,-10272,-18622,1891
631,3116,3118,3751,5616,22329,-47,6263,9378,-28252,20312,-10350,-18132,1901
632,3119,3121,3751,5616,22329,-223,6263,9378,-28252,20312,-10350,-18132,1880
633,3123,3124,3751,5616,22329,-127,6263,9378,-28252,20426,-10452,-18299,1861
634,3126,3128,3751,5616,22329,-223,6263,9378,-28252,20426,-10452,-18299,1870
635,3129,3131,3751,5616,22329,0,6263,9378,-28252,20480,-10440,-18407,1890
636,3133,3134,3751,5616,22329,-175,6263,9378,-28252,20480,-10440,-18407,1895
637,3136,3138,3751,5616,22329,-63,6263,9378,-28252,20497,-10356,-18365,1879
638,3139,3141,3751,5616,22329,-79,6263,9378,-28252,20497,-10356,-18365,1864
639,3143,3144,3751,5616,22329,0,6263,9378,-28252,20497,-10434,-18299,1869
640,3146,3148,3751,5616,22329,0,6263,9378,-28252,20497,-10434,-18299,1889
641,3149,3151,3751,5616,22329,-79,6263,9378,-28252,20462,-10494,-18557,1891
642,3153,3154,3751,5616,22329,15,6263,9378,-28252,20462,-10494,-18557,1880
643,3156,3158,3751,5616,22329,-143,6263,9378,-28252,20527,-10326,-18401,1869
644,3159,3161,3751,5616,22329,-111,6263,9378,-28252,20527,-10326,-18401,1872
645,3163,3164,3751,5616,22329,-127,6263,9378,-28252,20599,-10500,-18491,1890
646,3166,3168,3751,5616,22329,-239,6263,9378,-28252,20599,-10500,-18491,1893
647,3169,3171,3751,5616,22329,-159,6263,9378,-28252,20360,-10422,-18527,1880
648,3173,3175,3751,5616,22329,79,6263,9378,-28252,20360,-10356,-18275,1866
649,3176,3178,3751,5616,22329,-223,6263,9378,-28252,20372,-10356,-18275,1870
650,3179,3181,3751,5616,22329,-31,6263,9378,-28252,20444,-10542,-18401,1892
651,3183,3185,3751,5616,22329,-223,6263,9378,-28252,20444,-10542,-18401,1898
652,3186,3188,3751,5616,22329,63,6263,9378,-28252,20336,-10458,-18401,1877
653,3189,3191,3751,5616,22329,-63,6263,9378,-28252,20336,-10458,-18401,1862
654,3193,3195,3751,5616,22329,111,6263,9378,-28252,20408,-10320,-18335,1868
655,3196,3198,3751,5616,22329,-239,6263,9378,-28252,20408,-10320,-18335,1892
656,3199,3201,3751,5616,22329,-63,6263,9378,-28252,20234,-10470,-18658,1899
657,3203,3205,3751,5616,22329,-271,6263,9378,-28252,20234,-10470,-18658,1877
658,3206,3208,3751,5616,22329,-95,6263,9378,-28252,20426,-10344,-18491,1865
659,3210,3211,3751,5616,22329,95,6263,9378,-28252,20426,-10344,-18491,1872
660,3213,3215,3751,5616,22329,-607,6263,9378,-28252,20426,-10201,-18443,1892
661,3216,3218,3751,5616,22329,159,6263,9378,-28252,20426,-10201,-18443,1897
662,3220,3221,3751,5616,22329,0,6263,9378,-28252,20192,-10518,-18413,1878
663,3223,3225,3751,5616,22329,-111,6263,9378,-28252,20192,-10518,-18413,1863
664,3226,3228,3751,5616,22329,0,6263,9378,-28252,20336,-10332,-18575,1869
665,3230,3231,3751,5616,22329,-207,6263,9378,-28252,20336,-10332,-18575,1892
666,3233,3235,3751,5616,22329,-159,6263,9378,-28252,20348,-10332,-18401,1888
667,3236,3238,3751,5616,22329,-47,6263,9378,-28252,20348,-10332,-18401,1878
668,3240,3241,3751,5616,22329,0,6263,9378,-28252,20234,-10572,-18311,1865
669,3243,3245,3751,5616,22329,0,6263,9378,-28252,20234,-10572,-18311,1871
670,3246,3248,3751,5616,22329,79,6263,9378,-28252,20288,-10458,-18179,1893
671,3250,3251,3751,5616,22329,15,6263,9378,-28252,20288,-10458,-18179,1898
672,3253,3255,3751,5616,22329,-223,6263,9378,-28252,20276,-10506,-18281,1876
673,3256,3258,3751,5616,22329,-175,6263,9378,-28252,20276,-10506,-18281,1866
674,3260,3261,3751,5616,22329,-111,6263,9378,-28252,20360,-10380,-18407,1871
675,3263,3265,3751,5616,22329,-159,6263,9378,-28252,20330,-10410,-18185,1892
676,3266,3268,3751,5616,22329,0,6263,9378,-28252,20330,-10410,-18185,1892
677,3270,3271,3751,5616,22329,-143,6263,9378,-28252,20300,-10392,-18347,1877
678,3273,3275,3751,5616,22329,15,6263,9378,-28252,20300,-10392,-18347,1868
679,3276,3278,3751,5616,22329,-143,6263,9378,-28252,20354,-10428,-18257,1871
680,3280,3281,3751,5616,22329,-95,6263,9378,-28252,20354,-10428,-18257,1892
681,3283,3285,3751,5616,22329,-175,6263,9378,-28252,20426,-10386,-18245,1894
682,3286,3288,3751,5616,22329,31,6263,9378,-28252,20426,-10386,-18245,1876
683,3290,3292,3751,5616,22329,-31,6263,9378,-28252,20312,-10225,-18156,1856
684,3293,3295,3751,5616,22329,-191,6263,9378,-28252,20312,-10225,-18156,1872
685,3296,3298,3751,5616,22329,-47,6263,9378,-28252,20557,-10237,-18622,1892
686,3300,3302,3751,5616,22329,-79,6263,9378,-28252,20557,-10237,-18622,1896
687,3303,3305,3751,5616,22329,79,6263,9378,-28252,20468,-10231,-18401,1876
688,3306,3308,3751,5616,22329,0,6263,9378,-28252,20468,-10231,-18401,1857
689,3310,3312,3751,5616,22329,-207,6263,9378,-28252,20450,-10398,-18179,1875
690,3313,3315,3751,5616,22329,95,6263,9378,-28252,20450,-10398,-18179,1893
691,3316,3318,3751,5616,22329,-79,6263,9378,-28252,20432,-10518,-18233,1891
692,3320,3322,3751,5616,22329,-287,6263,9378,-28252,20432,-10518,-18233,1876
693,3323,3325,3751,5616,22329,-335,6263,9378,-28252,20450,-10368,-18359,1869
694,3327,3328,3751,5616,22329,-31,6263,9378,-28252,20450,-10368,-18359,1872
695,3330,3332,3751,5616,22329,0,6263,9378,-28252,20372,-10524,-18323,1894
696,3333,3335,3751,5616,22329,175,6263,9378,-28252,20372,-10524,-18323,1887
697,3337,3338,3751,5616,22329,-79,6263,9378,-28252,20306,-10578,-18497,1878
698,3340,3342,3751,5616,22329,-239,6263,9378,-28252,20306,-10578,-18497,1864
699,3343,3345,3751,5616,22329,-111,6263,9378,-28252,20324,-10566,-18593,1872
700,3347,3348,3751,5616,22329,-191,6263,9378,-28252,20324,-10566,-18317,1892
701,3350,3352,3751,5616,22329,-399,6263,9378,-28252,20366,-10638,-18317,1898
702,3353,3355,3751,5616,22329,15,6263,9378,-28252,20198,-10476,-18233,1874
703,3357,3358,3751,5616,22329,47,6263,9378,-28252,20198,-10476,-18233,1867
704,3360,3362,3751,5616,22329,63,6263,9378,-28252,20270,-10422,-18335,1872
705,3363,3365,3751,5616,22329,0,6263,9378,-28252,20270,-10422,-18335,1890
706,3367,3368,3751,5616,22329,-207,6263,9378,-28252,20378,-10452,-18455,1895
707,3370,3372,3751,5616,22329,-143,6263,9378,-28252,20378,-10452,-18455,1874
708,3373,3375,3751,5616,22329,0,6263,9378,-28252,20294,-10356,-18395,1864
709,3377,3378,3751,5616,22329,-31,6263,9378,-28252,20294,-10356,-18395,1873
710,3380,3382,3751,5616,22329,15,6263,9378,-28252,20366,-10147,-18335,1894
711,3383,3385,3751,5616,22329,79,6263,9378,-28252,20366,-10147,-18335,1893
712,3387,3388,3751,5616,22329,-79,6263,9378,-28252,20318,-10470,-18311,1875
713,3390,3392,3751,5616,22329,111,6263,9378,-28252,20318,-10470,-18311,1858
714,3393,3395,3751,5616,22329,63,6263,9378,-28252,20234,-10524,-18569,1872
715,3397,3398,3751,5616,22329,-47,6263,9378,-28252,20234,-10524,-18569,1893
716,3400,3402,3751,5616,22329,-367,6263,9378,-28252,20348,-10578,-18491,1894
717,3403,3405,3751,5616,22329,15,6263,9378,-28252,20348,-10578,-18491,1873
718,3407,3409,3751,5616,22329,-159,6263,9378,-28252,20348,-10536,-18299,1860
719,3410,3412,3751,5616,22329,0,6263,9378,-28252,20348,-10536,-18299,1874
720,3413,3415,3751,5616,22329,-207,6263,9378,-28252,20366,-10530,-18275,1892
721,3417,3419,3751,5616,22329,-175,6263,9378,-28252,20366,-10530,-18275,1896
722,3420,3422,3751,5616,22329,-95,6263,9378,-28252,20330,-10596,-18227,1874
723,3423,3425,3751,5616,22329,47,6263,9378,-28252,20330,-10596,-18227,1867
724,3427,3429,3751,5616,22329,-111,6263,9378,-28252,20186,-10254,-18479,1875
725,3430,3432,3751,5616,22329,15,6263,9378,-28252,20186,-10254,-18479,1893
726,3433,3435,3751,5616,22329,-79,6263,9378,-28252,20264,-10242,-18515,1887
727,3437,3439,3751,5616,22329,0,6263,9378,-28252,20348,-10350,-18658,1873
728,3440,3442,3751,5616,22329,-95,6263,9378,-28252,20348,-10350,-18658,1865
729,3444,3445,3751,5616,22329,-175,6263,9378,-28252,20330,-10392,-18724,1874
730,3447,3449,3751,5616,22329,-15,6263,9378,-28252,20330,-10392,-18724,1894
731,3450,3452,3751,5616,22329,-111,6263,9378,-28252,20306,-10278,-18395,1888
732,3454,3455,3751,5616,22329,0,6263,9378,-28252,20306,-10278,-18395,1874
733,3457,3459,3751,5616,22329,15,6263,9378,-28252,20372,-10422,-18126,1857
734,3460,3462,3751,5616,22329,-127,6263,9378,-28252,20372,-10422,-18126,1874
735,3464,3465,3751,5616,22329,-207,6263,9378,-28252,20366,-10446,-18108,1894
736,3467,3469,3751,5616,22329,-223,6263,9378,-28252,20366,-10446,-18108,1892
737,3470,3472,3751,5616,22329,79,6263,9378,-28252,20444,-10296,-18311,1875
738,3474,3475,3751,5616,22329,-63,6263,9378,-28252,20444,-10296,-18311,1866
739,3477,3479,3751,5616,22329,-335,6263,9378,-28252,20384,-10398,-18317,1874
740,3480,3482,3751,5616,22329,31,6263,9378,-28252,20384,-10398,-18317,1894
741,3484,3485,3751,5616,22329,-47,6263,9378,-28252,20342,-10548,-18539,1892
742,3487,3489,3751,5616,22329,-303,6263,9378,-28252,20342,-10548,-18539,1874
743,3490,3492,3751,5616,22329,175,6263,9378,-28252,20342,-10350,-18497,1862
744,3494,3495,3751,5616,22329,-111,6263,9378,-28252,20342,-10350,-18497,1876
745,3497,3499,3751,5616,22329,-143,6263,9378,-28252,20342,-10440,-18473,1893
746,3500,3502,3751,5616,22329,0,6263,9378,-28252,20342,-10440,-18473,1886
747,3504,3505,3751,5616,22329,111,6263,9378,-28252,20324,-10326,-18473,1874
748,3507,3509,3751,5616,22329,111,6263,9378,-28252,20324,-10326,-18473,1864
749,3510,3512,3751,5616,22329,-191,6263,9378,-28252,20234,-10458,-18311,1876
750,3514,3515,3751,5616,22329,-15,6263,9378,-28252,20234,-10458,-18311,1893
751,3517,3519,3751,5616,22329,175,6263,9378,-28252,20366,-10380,-18413,1892
752,3520,3522,3751,5616,22329,-175,6263,9378,-28252,20366,-10380,-18497,1872
753,3524,3526,3751,5616,22329,-95,6263,9378,-28252,20192,-10470,-18497,1864
754,3527,3529,3751,5616,22329,159,6263,9378,-28252,20444,-10374,-18353,1876
755,3530,3532,3751,5616,22329,-175,6263,9378,-28252,20444,-10374,-18353,1890
756,3534,3536,3751,5616,22329,0,6263,9378,-28252,20444,-10416,-18365,1887
757,3537,3539,3751,5616,22329,-303,6263,9378,-28252,20444,-10416,-18365,1874
758,3540,3542,3751,5616,22329,-79,6263,9378,-28252,20288,-10566,-18353,1860
759,3544,3546,3751,5616,22329,-79,6263,9378,-28252,20288,-10566,-18353,1877
760,3547,3549,3751,5616,22329,-191,6263,9378,-28252,20468,-10494,-18539,1895
761,3550,3552,3751,5616,22329,47,6263,9378,-28252,20468,-10494,-18539,1892
762,3554,3556,3751,5616,22329,143,6263,9378,-28252,20282,-10416,-18401,1871
763,3557,3559,3751,5616,22329,0,6263,9378,-28252,20282,-10416,-18401,1856
764,3561,3562,3751,5616,22329,15,6263,9378,-28252,20312,-10266,-18383,1878
765,3564,3566,3751,5616,22329,15,6263,9378,-28252,20312,-10266,-18383,1893
766,3567,3569,3751,5616,22329,175,6263,9378,-28252,20330,-10344,-18425,1891
767,3571,3572,3751,5616,22329,-143,6263,9378,-28252,20330,-10344,-18425,1873
768,3574,3576,3751,5616,22329,-127,6263,9378,-28252,20378,-10296,-18581,1865
769,3577,3579,3751,5616,22329,111,6263,9378,-28252,20378,-10296,-18581,1876
770,3581,3582,3751,5616,22329,127,6263,9378,-28252,20360,-10219,-18389,1894
771,3584,3586,3751,5616,22329,-111,6263,9378,-28252,20360,-10219,-18389,1894
772,3587,3589,3751,5616,22329,-143,6263,9378,-28252,20503,-10332,-18203,1873
773,3591,3592,3751,5616,22329,-47,6263,9378,-28252,20503,-10332,-18203,1858
774,3594,3596,3751,5616,22329,-47,6263,9378,-28252,20258,-10326,-18569,1877
775,3597,3599,3751,5616,22329,63,6263,9378,-28252,20258,-10326,-18569,1894
776,3601,3602,3751,5616,22329,0,6263,9378,-28252,20426,-10320,-18353,1889
777,3604,3606,3751,5616,22329,-383,6263,9378,-28252,20426,-10320,-18353,1869
778,3607,3609,3751,5616,22329,-127,6263,9378,-28252,20288,-10380,-18521,1857
779,3611,3612,3751,5616,22329,-63,6263,9378,-28252,20162,-10338,-18503,1879
780,3614,3616,3751,5616,22329,-159,6263,9378,-28252,20162,-10338,-18503,1893
781,3617,3619,3751,5616,22329,-479,6263,9378,-28252,20234,-10428,-18311,1887
782,3621,3622,3751,5616,22329,31,6263,9378,-28252,20234,-10428,-18311,1873
783,3624,3626,3751,5616,22329,-47,6263,9378,-28252,20270,-10464,-18413,1860
784,3627,3629,3751,5616,22329,47,6263,9378,-28252,20270,-10464,-18413,1879
785,3631,3632,3751,5616,22329,0,6263,9378,-28252,20288,-10464,-18640,1898
786,3634,3636,3751,5616,22329,303,6263,9378,-28252,20288,-10464,-18640,1893
787,3637,3639,3751,5616,22329,351,6263,9378,-28252,20312,-10422,-18742,1872
788,3641,3643,3751,5616,22329,-223,6263,9378,-28252,20312,-10422,-18742,1857
789,3644,3646,3751,5616,22329,-239,6263,9378,-28252,20438,-10338,-18676,1879
790,3647,3649,3751,5616,22329,-79,6263,9378,-28252,20438,-10338,-18676,1895
791,3651,3653,3751,5616,22329,-63,6263,9378,-28252,20264,-10344,-18718,1893
792,3654,3656,3751,5616,22329,-207,6263,9378,-28252,20264,-10344,-18718,1868
793,3657,3659,3751,5616,22329,-47,6263,9378,-28252,20306,-10452,-18521,1867
794,3661,3663,3751,5616,22329,-47,6263,9378,-28252,20306,-10452,-18521,1878
795,3664,3666,3751,5616,22329,127,6263,9378,-28252,20372,-10350,-18473,1892
796,3667,3669,3751,5616,22329,-95,6263,9378,-28252,20372,-10350,-18473,1890
797,3671,3673,3751,5616,22329,0,6263,9378,-28252,20276,-10494,-18581,1867
798,3674,3676,3751,5616,22329,-79,6263,9378,-28252,20276,-10494,-18581,1857
799,3678,3679,3751,5616,22329,0,6263,9378,-28252,20300,-10380,-18616,1880
800,3681,3683,3751,5616,22329,15,6263,9378,-28252,20300,-10380,-18616,1893
801,3684,3686,3751,5616,22329,-175,6263,9378,-28252,20294,-10428,-18533,1891
802,3688,3689,3751,5616,22329,-95,6263,9378,-28252,20294,-10428,-18533,1871
803,3691,3693,3751,5616,22329,-31,6263,9378,-28252,20198,-10434,-18563,1860
804,3694,3696,3751,5616,22329,-79,6263,9378,-28252,20198,-10434,-18563,1879
805,3698,3699,3751,5616,22329,79,6263,9378,-28252,20258,-10350,-18587,1891
806,3701,3703,3751,5616,22329,0,6263,9378,-28252,20276,-10380,-18443,1891
807,3704,3706,3751,5616,22329,79,6263,9378,-28252,20276,-10380,-18443,1871
808,3708,3709,3751,5616,22329,-175,6263,9378,-28252,20264,-10422,-18401,1864
809,3711,3713,3751,5616,22329,-95,6263,9378,-28252,20264,-10422,-18401,1879
810,3714,3716,3751,5616,22329,79,6263,9378,-28252,20354,-10494,-18353,1894
811,3718,3719,3751,5616,22329,0,6263,9378,-28252,20354,-10494,-18353,1890
812,3721,3723,3751,5616,22329,-47,6263,9378,-28252,20390,-10434,-18341,1869
813,3724,3726,3751,5616,22329,31,6263,9378,-28252,20390,-10434,-18341,1859
814,3728,3729,3751,5616,22329,0,6263,9378,-28252,20258,-10727,-18245,1880
815,3731,3733,3751,5616,22329,271,6263,9378,-28252,20258,-10727,-18245,1897
816,3734,3736,3751,5616,22329,-415,6263,9378,-28252,20300,-10380,-18347,1885
817,3738,3739,3751,5616,22329,-111,6263,9378,-28252,20300,-10380,-18347,1870
818,3741,3743,3751,5616,22329,-95,6263,9378,-28252,20384,-10572,-18443,1863
819,3744,3746,3751,5616,22329,-47,6263,9378,-28252,20384,-10572,-18443,1879
820,3748,3749,3751,5616,22329,-143,6263,9378,-28252,20462,-10494,-18557,1895
821,3751,3753,3751,5616,22329,-191,6263,9378,-28252,20462,-10494,-18557,1888
822,3754,3756,3751,5616,22329,47,6263,9378,-28252,20462,-10500,-18491,1870
823,3758,3760,3751,5616,22329,79,6263,9378,-28252,20462,-10500,-18491,1867
824,3761,3763,3751,5616,22329,-303,6263,9378,-28252,20210,-10338,-18551,1879
825,3764,3766,3751,5616,22329,-63,6263,9378,-28252,20210,-10338,-18551,1895
826,3768,3770,3751,5616,22329,-191,6263,9378,-28252,20252,-10668,-18479,1890
827,3771,3773,3751,5616,22329,175,6263,9378,-28252,20252,-10668,-18479,1868
828,3774,3776,3751,5616,22329,0,6263,9378,-28252,20491,-10446,-18413,1866
829,3778,3780,3751,5616,22329,-143,6263,9378,-28252,20491,-10446,-18413,1880
830,3781,3783,3751,5616,22329,-351,6263,9378,-28252,20276,-10548,-18144,1896
831,3784,3786,3751,5616,22329,-47,6263,9378,-28252,20426,-10632,-18305,1884
832,3788,3790,3751,5616,22329,15,6263,9378,-28252,20426,-10632,-18305,1867
833,3791,3793,3751,5616,22329,-15,6263,9378,-28252,20234,-10320,-18413,1862
834,3795,3796,3751,5616,22329,0,6263,9378,-28252,20234,-10320,-18413,1881
835,3798,3800,3751,5616,22329,-63,6263,9378,-28252,20330,-10380,-18323,1892
836,3801,3803,3751,5616,22329,-319,6263,9378,-28252,20330,-10380,-18323,1888
837,3805,3806,3751,5616,22329,0,6263,9378,-28252,20474,-10374,-18383,1870
838,3808,3810,3751,5616,22329,-95,6263,9378,-28252,20474,-10374,-18383,1863
839,3811,3813,3751,5616,22329,-335,6263,9378,-28252,20396,-10512,-18425,1878
840,3815,3816,3751,5616,22329,-127,6263,9378,-28252,20396,-10512,-18425,1892
841,3818,3820,3751,5616,22329,-127,6263,9378,-28252,20288,-10338,-18473,1889
842,3821,3823,3751,5616,22329,79,6263,9378,-28252,20288,-10338,-18473,1870
843,3825,3826,3751,5616,22329,-31,6263,9378,-28252,20485,-10290,-18365,1857
844,3828,3830,3751,5616,22329,-191,6263,9378,-28252,20485,-10290,-18365,1882
845,3831,3833,3751,5616,22329,-159,6263,9378,-28252,20342,-10380,-18371,1889
846,3835,3836,3751,5616,22329,-143,6263,9378,-28252,20342,-10380,-18371,1889
847,3838,3840,3751,5616,22329,79,6263,9378,-28252,20330,-10452,-18347,1868
848,3841,3843,3751,5616,22329,-127,6263,9378,-28252,20330,-10452,-18347,1860
849,3845,3846,3751,5616,22329,-159,6263,9378,-28252,20252,-10386,-18539,1883
850,3848,3850,3751,5616,22329,15,6263,9378,-28252,20252,-10386,-18539,1892
851,3851,3853,3751,5616,22329,95,6263,9378,-28252,20312,-10446,-18401,1886
852,3855,3856,3751,5616,22329,-63,6263,9378,-28252,20312,-10446,-18401,1871
853,3858,3860,3751,5616,22329,47,6263,9378,-28252,20150,-10410,-18353,1864
854,3861,3863,3751,5616,22329,159,6263,9378,-28252,20150,-10410,-18353,1883
855,3865,3866,3751,5616,22329,-111,6263,9378,-28252,20378,-10362,-18275,1898
856,3868,3870,3751,5616,22329,-143,6263,9378,-28252,20378,-10362,-18275,1888
857,3871,3873,3751,5616,22329,-367,6263,9378,-28252,20300,-10278,-18353,1867
858,3875,3877,3751,5616,22329,-159,6263,9378,-28252,20390,-10141,-18162,1864
859,3878,3880,3751,5616,22329,0,6263,9378,-28252,20390,-10141,-18162,1882
860,3881,3883,3751,5616,22329,-175,6263,9378,-28252,20013,-10272,-18197,1899
861,3885,3887,3751,5616,22329,-143,6263,9378,-28252,20013,-10272,-18197,1885
862,3888,3890,3751,5616,22329,-143,6263,9378,-28252,20168,-10482,-18221,1867
863,3891,3893,3751,5616,22329,-143,6263,9378,-28252,20168,-10482,-18221,1864
864,3895,3897,3751,5616,22329,-191,6263,9378,-28252,20210,-10350,-18227,1882
865,3898,3900,3751,5616,22329,-63,6263,9378,-28252,20210,-10350,-18227,1889
866,3901,3903,3751,5616,22329,-239,6263,9378,-28252,20264,-10356,-18173,1882
867,3905,3907,3751,5616,22329,-191,6263,9378,-28252,20264,-10356,-18173,1868
868,3908,3910,3751,5616,22329,271,6263,9378,-28252,20108,-10410,-18353,1858
869,3912,3913,3751,5616,22329,0,6263,9378,-28252,20108,-10410,-18353,1883
870,3915,3917,3751,5616,22329,111,6263,9378,-28252,20180,-10572,-18407,1896
871,3918,3920,3751,5616,22329,-175,6263,9378,-28252,20180,-10572,-18407,1884
872,3922,3923,3751,5616,22329,-95,6263,9378,-28252,20276,-10458,-18311,1869
873,3925,3927,3751,5616,22329,79,6263,9378,-28252,20276,-10458,-18311,1865
874,3928,3930,3751,5616,22329,0,6263,9378,-28252,20252,-10566,-18365,1881
875,3932,3933,3751,5616,22329,-31,6263,9378,-28252,20252,-10566,-18365,1897
876,3935,3937,3751,5616,22329,0,6263,9378,-28252,20114,-10374,-18401,1886
877,3938,3940,3751,5616,22329,-239,6263,9378,-28252,20114,-10374,-18401,1868
878,3942,3943,3751,5616,22329,-79,6263,9378,-28252,20264,-10488,-18347,1863
879,3945,3947,3751,5616,22329,79,6263,9378,-28252,20264,-10488,-18347,1883
880,3948,3950,3751,5616,22329,-239,6263,9378,-28252,20102,-10350,-18263,1895
881,3952,3953,3751,5616,22329,79,6263,9378,-28252,20102,-10350,-18263,1884
882,3955,3957,3751,5616,22329,-79,6263,9378,-28252,20396,-10392,-18371,1865
883,3958,3960,3751,5616,22329,-303,6263,9378,-28252,20396,-10248,-18335,1866
884,3962,3963,3751,5616,22329,15,6263,9378,-28252,20330,-10248,-18335,1882
885,3965,3967,3751,5616,22329,-159,6263,9378,-28252,20264,-10195,-18275,1894
886,3968,3970,3751,5616,22329,-431,6263,9378,-28252,20264,-10195,-18275,1881
887,3972,3973,3751,5616,22329,-223,6263,9378,-28252,20180,-10195,-18365,1867
888,3975,3977,3751,5616,22329,-31,6263,9378,-28252,20180,-10195,-18365,1865
889,3978,3980,3751,5616,22329,-47,6263,9378,-28252,20096,-10177,-18365,1883
890,3982,3983,3751,5616,22329,0,6263,9378,-28252,20096,-10177,-18365,1896
891,3985,3987,3751,5616,22329,-79,6263,9378,-28252,20174,-10350,-18311,1884
892,3988,3990,3751,5616,22329,47,6263,9378,-28252,20174,-10350,-18311,1866
893,3992,3994,3751,5616,22329,63,6263,9378,-28252,20198,-10189,-18359,1865
894,3995,3997,3751,5616,22329,31,6263,9378,-28252,20198,-10189,-18359,1883
895,3998,4000,3751,5616,22329,-143,6263,9378,-28252,20222,-10225,-18275,1895
896,4002,4004,3751,5616,22329,0,6263,9378,-28252,20222,-10225,-18275,1884
897,4005,4007,3751,5616,22329,-303,6263,9378,-28252,20402,-10159,-18018,1867
898,4008,4010,3751,5616,22329,-111,6263,9378,-28252,20402,-10159,-18018,1859
899,4012,4014,3751,5616,22329,-79,6263,9378,-28252,20228,-10171,-17982,1883
900,4015,4017,3751,5616,22329,63,6263,9378,-28252,20228,-10171,-17982,1900
901,4018,4020,3751,5616,22329,-159,6263,9378,-28252,20306,-10213,-18347,1883
902,4022,4024,3751,5616,22329,-63,6263,9378,-28252,20306,-10213,-18347,1864
903,4025,4027,3751,5616,22329,-175,6263,9378,-28252,20288,-10057,-18209,1862
904,4029,4030,3751,5616,22329,-31,6263,9378,-28252,20288,-10057,-18209,1884
905,4032,4034,3751,5616,22329,-143,6263,9378,-28252,20300,-10171,-18467,1899
906,4035,4037,3751,5616,22329,-623,6263,9378,-28252,20300,-10171,-18467,1882
907,4039,4040,3751,5616,22329,0,6263,9378,-28252,20432,-10213,-18527,1863
908,4042,4044,3751,5616,22329,-239,6263,9378,-28252,20432,-10213,-18527,1861
909,4045,4047,3751,5616,22329,79,6263,9378,-28252,20258,-10051,-18425,1883
910,4049,4050,3751,5616,22329,-111,6263,9378,-28252,20306,-10045,-18233,1898
911,4052,4054,3751,5616,22329,-95,6263,9378,-28252,20306,-10045,-18233,1883
912,4055,4057,3751,5616,22329,-271,6263,9378,-28252,20294,-10135,-18335,1865
913,4059,4060,3751,5616,22329,-111,6263,9378,-28252,20294,-10135,-18335,1861
914,4062,4064,3751,5616,22329,-63,6263,9378,-28252,20144,-10099,-18395,1885
915,4065,4067,3751,5616,22329,159,6263,9378,-28252,20144,-10099,-18395,1892
916,4069,4070,3751,5616,22329,-79,6263,9378,-28252,20156,-10219,-18461,1884
917,4072,4074,3751,5616,22329,-175,6263,9378,-28252,20156,-10219,-18461,1861
918,4075,4077,3751,5616,22329,-351,6263,9378,-28252,20348,-10356,-18395,1867
919,4079,4080,3751,5616,22329,-191,6263,9378,-28252,20348,-10356,-18395,1885
920,4082,4084,3751,5616,22329,-79,6263,9378,-28252,20300,-10416,-18467,1897
921,4085,4087,3751,5616,22329,-255,6263,9378,-28252,20300,-10416,-18467,1883
922,4089,4090,3751,5616,22329,-63,6263,9378,-28252,20246,-10320,-18239,1864
923,4092,4094,3751,5616,22329,-31,6263,9378,-28252,20246,-10320,-18239,1862
924,4095,4097,3751,5616,22329,31,6263,9378,-28252,20438,-10183,-18425,1886
925,4099,4100,3751,5616,22329,-47,6263,9378,-28252,20438,-10183,-18425,1893
926,4102,4104,3751,5616,22329,-111,6263,9378,-28252,20318,-10344,-18287,1884
927,4105,4107,3751,5616,22329,15,6263,9378,-28252,20318,-10344,-18287,1864
928,4109,4111,3751,5616,22329,15,6263,9378,-28252,20366,-10260,-18114,1865
929,4112,4114,3751,5616,22329,-111,6263,9378,-28252,20366,-10260,-18114,1886
930,4115,4117,3751,5616,22329,-191,6263,9378,-28252,20192,-10296,-18401,1890
931,4119,4121,3751,5616,22329,-31,6263,9378,-28252,20192,-10296,-18401,1884
932,4122,4124,3751,5616,22329,-239,6263,9378,-28252,20318,-10195,-18329,1865
933,4125,4127,3751,5616,22329,0,6263,9378,-28252,20318,-10195,-18329,1861
934,4129,4131,3751,5616,22329,-15,6263,9378,-28252,20144,-10332,-18257,1886
935,4132,4134,3751,5616,22329,-207,6263,9378,-28252,20144,-10290,-18347,1895
936,4135,4137,3751,5616,22329,-223,6263,9378,-28252,20246,-10290,-18347,1883
937,4139,4141,3751,5616,22329,-47,6263,9378,-28252,20288,-10296,-18275,1864
938,4142,4144,3751,5616,22329,-255,6263,9378,-28252,20288,-10296,-18275,1865
939,4146,4147,3751,5616,22329,-399,6263,9378,-28252,20288,-10207,-18359,1887
940,4149,4151,3751,5616,22329,-95,6263,9378,-28252,20288,-10207,-18359,1897
941,4152,4154,3751,5616,22329,-287,6263,9378,-28252,20306,-10177,-18054,1881
942,4156,4157,3751,5616,22329,95,6263,9378,-28252,20306,-10177,-18054,1865
943,4159,4161,3751,5616,22329,143,6263,9378,-28252,20348,-10171,-18251,1862
944,4162,4164,3751,5616,22329,-175,6263,9378,-28252,20348,-10171,-18251,1886
945,4166,4167,3751,5616,22329,-127,6263,9378,-28252,20396,-10386,-18533,1900
946,4169,4171,3751,5616,22329,0,6263,9378,-28252,20396,-10386,-18533,1882
947,4172,4174,3751,5616,22329,-495,6263,9378,-28252,20246,-10278,-18485,1863
948,4176,4177,3751,5616,22329,127,6263,9378,-28252,20246,-10278,-18485,1865
949,4179,4181,3751,5616,22329,-159,6263,9378,-28252,20336,-10260,-18509,1887
950,4182,4184,3751,5616,22329,127,6263,9378,-28252,20336,-10260,-18509,1896
951,4186,4187,3751,5616,22329,-95,6263,9378,-28252,20378,-10266,-18251,1881
952,4189,4191,3751,5616,22329,-95,6263,9378,-28252,20378,-10266,-18251,1862
953,4192,4194,3751,5616,22329,15,6263,9378,-28252,20324,-10374,-18389,1866
954,4196,4197,3751,5616,22329,-79,6263,9378,-28252,20324,-10374,-18389,1886
955,4199,4201,3751,5616,22329,-127,6263,9378,-28252,20222,-10332,-18557,1891
956,4202,4204,3751,5616,22329,0,6263,9378,-28252,20222,-10332,-18557,1878
957,4206,4207,3751,5616,22329,-63,6263,9378,-28252,20204,-10278,-18227,1861
958,4209,4211,3751,5616,22329,-127,6263,9378,-28252,20204,-10278,-18227,1867
959,4212,4214,3751,5616,22329,303,6263,9378,-28252,20270,-10500,-18126,1887
960,4216,4217,3751,5616,22329,-63,6263,9378,-28252,20270,-10500,-18126,1891
961,4219,4221,3751,5616,22329,15,6263,9378,-28252,20198,-10284,-18221,1882
962,4222,4224,3751,5616,22329,-447,6263,9378,-28252,20294,-10290,-18341,1866
963,4226,4228,3751,5616,22329,159,6263,9378,-28252,20294,-10290,-18341,1867
964,4229,4231,3751,5616,22329,31,6263,9378,-28252,20336,-10266,-18401,1889
965,4232,4234,3751,5616,22329,0,6263,9378,-28252,20336,-10266,-18401,1892
966,4236,4238,3751,5616,22329,0,6263,9378,-28252,20318,-10362,-18419,1881
967,4239,4241,3751,5616,22329,127,6263,9378,-28252,20318,-10362,-18419,1865
968,4242,4244,3751,5616,22329,-175,6263,9378,-28252,20306,-10195,-18718,1868
969,4246,4248,3751,5616,22329,-15,6263,9378,-28252,20306,-10195,-18718,1888
970,4249,4251,3751,5616,22329,-31,6263,9378,-28252,20324,-10213,-18401,1894
971,4252,4254,3751,5616,22329,111,6263,9378,-28252,20324,-10213,-18401,1879
972,4256,4258,3751,5616,22329,-159,6263,9378,-28252,20324,-10207,-18497,1864
973,4259,4261,3751,5616,22329,79,6263,9378,-28252,20324,-10207,-18497,1865
974,4263,4264,3751,5616,22329,95,6263,9378,-28252,20246,-10326,-18521,1888
975,4266,4268,3751,5616,22329,15,6263,9378,-28252,20246,-10326,-18521,1900
976,4269,4271,3751,5616,22329,127,6263,9378,-28252,20276,-10344,-18473,1875
977,4273,4274,3751,5616,22329,-143,6263,9378,-28252,20276,-10344,-18473,1865
978,4276,4278,3751,5616,22329,-159,6263,9378,-28252,20204,-10524,-18503,1866
979,4279,4281,3751,5616,22329,63,6263,9378,-28252,20204,-10524,-18503,1885
980,4283,4284,3751,5616,22329,-31,6263,9378,-28252,20156,-10213,-18371,1888
981,4286,4288,3751,5616,22329,-79,6263,9378,-28252,20156,-10213,-18371,1880
982,4289,4291,3751,5616,22329,79,6263,9378,-28252,20222,-10231,-18467,1866
983,4293,4294,3751,5616,22329,-111,6263,9378,-28252,20222,-10231,-18467,1866
984,4296,4298,3751,5616,22329,207,6263,9378,-28252,20264,-10231,-18263,1887
985,4299,4301,3751,5616,22329,-127,6263,9378,-28252,20264,-10231,-18263,1889
986,4303,4304,3751,5616,22329,-431,6263,9378,-28252,20288,-10314,-18419,1879
987,4306,4308,3751,5616,22329,-63,6263,9378,-28252,20288,-10326,-18150,1859
988,4309,4311,3751,5616,22329,-319,6263,9378,-28252,20300,-10326,-18150,1869
989,4313,4314,3751,5616,22329,-271,6263,9378,-28252,20246,-10290,-18293,1889
990,4316,4318,3751,5616,22329,-95,6263,9378,-28252,20246,-10290,-18293,1895
991,4319,4321,3751,5616,22329,-191,6263,9378,-28252,20294,-10260,-18215,1878
992,4323,4324,3751,5616,22329,319,6263,9378,-28252,20294,-10260,-18215,1866
993,4326,4328,3751,5616,22329,-175,6263,9378,-28252,20066,-10350,-18066,1869
994,4329,4331,3751,5616,22329,95,6263,9378,-28252,20066,-10350,-18066,1887
995,4333,4334,3751,5616,22329,0,6263,9378,-28252,20228,-10338,-18138,1894
996,4336,4338,3751,5616,22329,-15,6263,9378,-28252,20228,-10338,-18138,1879
997,4339,4341,3751,5616,22329,47,6263,9378,-28252,20025,-10380,-17916,1859
998,4343,4345,3751,5616,22329,0,6263,9378,-28252,20025,-10380,-17916,1868
999,4346,4348,3751,5616,22329,-191,6263,9378,-28252,20294,-10242,-18281,1888
1000,4349,4351,3751,5616,22329,31,6263,9378,-28252,20294,-10242,-18281,1896
1001,4353,4355,3751,5616,22329,-15,6263,9378,-28252,20156,-10201,-18395,1878
1002,4356,4358,3751,5616,22329,-31,6263,9378,-28252,20156,-10201,-18395,1862
1003,4359,4361,3751,5616,22329,-143,6263,9378,-28252,20156,-10231,-18323,1869
1004,4363,4365,3751,5616,22329,0,6263,9378,-28252,20156,-10231,-18323,1888
1005,4366,4368,3751,5616,22329,15,6263,9378,-28252,20276,-10153,-18419,1897
1006,4369,4371,3751,5616,22329,-335,6263,9378,-28252,20276,-10153,-18419,1877
1007,4373,4375,3751,5616,22329,-63,6263,9378,-28252,19935,-10254,-18353,1864
1008,4376,4378,3751,5616,22329,63,6263,9378,-28252,19935,-10254,-18353,1868
1009,4380,4381,3751,5616,22329,-175,6263,9378,-28252,20084,-10278,-18419,1889
1010,4383,4385,3751,5616,22329,-63,6263,9378,-28252,20084,-10278,-18419,1898
1011,4386,4388,3751,5616,22329,-175,6263,9378,-28252,20348,-10392,-18335,1875
1012,4390,4391,3751,5616,22329,-255,6263,9378,-28252,20348,-10392,-18335,1865
1013,4393,4395,3751,5616,22329,-79,6263,9378,-28252,20132,-10440,-18593,1868
1014,4396,4398,3751,5616,22329,15,6263,9378,-28252,20204,-10338,-18281,1885
1015,4400,4401,3751,5616,22329,-191,6263,9378,-28252,20204,-10338,-18281,1889
1016,4403,4405,3751,5616,22329,-143,6263,9378,-28252,20282,-10488,-18515,1876
1017,4406,4408,3751,5616,22329,0,6263,9378,-28252,20282,-10488,-18515,1866
1018,4410,4411,3751,5616,22329,-143,6263,9378,-28252,20216,-10183,-18347,1867
1019,4413,4415,3751,5616,22329,0,6263,9378,-28252,20216,-10183,-18347,1889
1020,4416,4418,3751,5616,22329,47,6263,9378,-28252,20216,-10266,-18126,1892
1021,4420,4421,3751,5616,22329,79,6263,9378,-28252,20216,-10266,-18126,1876
1022,4423,4425,3751,5616,22329,-63,6263,9378,-28252,20174,-10320,-18048,1856
1023,4426,4428,3751,5616,22329,-127,6263,9378,-28252,20174,-10320,-18048,1870
1024,4430,4431,3751,5616,22329,-207,6263,9378,-28252,20282,-10386,-18132,1891
1025,4433,4435,3751,5616,22329,-63,6263,9378,-28252,20282,-10386,-18132,1887
1026,4436,4438,3751,5616,22329,0,6263,9378,-28252,20072,-10266,-18084,1876
1027,4440,4441,3751,5616,22329,0,6263,9378,-28252,20072,-10266,-18084,1868
1028,4443,4445,3751,5616,22329,-47,6263,9378,-28252,20306,-10213,-18185,1869
1029,4446,4448,3751,5616,22329,-207,6263,9378,-28252,20306,-10213,-18185,1889
1030,4450,4451,3751,5616,22329,-127,6263,9378,-28252,20162,-10392,-18227,1891
1031,4453,4455,3751,5616,22329,95,6263,9378,-28252,20162,-10392,-18227,1877
1032,4456,4458,3751,5616,22329,-63,6263,9378,-28252,20246,-10392,-18305,1857
1033,4460,4462,3751,5616,22329,143,6263,9378,-28252,20246,-10392,-18305,1867
1034,4463,4465,3751,5616,22329,-207,6263,9378,-28252,20294,-10213,-18245,1893
1035,4466,4468,3751,5616,22329,271,6263,9378,-28252,20294,-10213,-18245,1890
1036,4470,4472,3751,5616,22329,239,6263,9378,-28252,20222,-10368,-18275,1878
1037,4473,4475,3751,5616,22329,95,6263,9378,-28252,20222,-10368,-18275,1858
1038,4476,4478,3751,5616,22329,-175,6263,9378,-28252,20216,-10290,-18341,1871
1039,4480,4482,3751,5616,22329,47,6263,9378,-28252,20216,-10290,-18299,1889
1040,4483,4485,3751,5616,22329,63,6263,9378,-28252,20216,-10446,-18299,1895
1041,4486,4488,3751,5616,22329,-239,6263,9378,-28252,20228,-10290,-18090,1876
1042,4490,4492,3751,5616,22329,31,6263,9378,-28252,20228,-10290,-18090,1866
1043,4493,4495,3751,5616,22329,15,6263,9378,-28252,20120,-10458,-18227,1871
1044,4497,4498,3751,5616,22329,399,6263,9378,-28252,20120,-10458,-18227,1891
1045,4500,4502,3751,5616,22329,-127,6263,9378,-28252,19983,-10332,-18317,1892
1046,4503,4505,3751,5616,22329,-111,6263,9378,-28252,19983,-10332,-18317,1874
1047,4507,4508,3751,5616,22329,31,6263,9378,-28252,20162,-10320,-18311,1864
1048,4510,4512,3751,5616,22329,-31,6263,9378,-28252,20162,-10320,-18311,1870
1049,4513,4515,3751,5616,22329,15,6263,9378,-28252,20078,-10314,-18209,1889
1050,4517,4518,3751,5616,22329,-207,6263,9378,-28252,20078,-10314,-18209,1895
1051,4520,4522,3751,5616,22329,-207,6263,9378,-28252,20102,-10338,-18203,1874
1052,4523,4525,3751,5616,22329,-15,6263,9378,-28252,20102,-10338,-18203,1858
1053,4527,4528,3751,5616,22329,111,6263,9378,-28252,20174,-10380,-18132,1871
1054,4530,4532,3751,5616,22329,-159,6263,9378,-28252,20174,-10380,-18132,1891
1055,4533,4535,3751,5616,22329,95,6263,9378,-28252,20234,-10512,-18257,1886
1056,4537,4538,3751,5616,22329,95,6263,9378,-28252,20234,-10512,-18257,1876
1057,4540,4542,3751,5616,22329,-159,6263,9378,-28252,20204,-10410,-18299,1864
1058,4543,4545,3751,5616,22329,15,6263,9378,-28252,20204,-10410,-18299,1871
1059,4547,4548,3751,5616,22329,31,6263,9378,-28252,20264,-10398,-18203,1891
1060,4550,4552,3751,5616,22329,15,6263,9378,-28252,20264,-10398,-18203,1893
1061,4553,4555,3751,5616,22329,-63,6263,9378,-28252,20450,-10344,-18126,1874
1062,4557,4558,3751,5616,22329,-239,6263,9378,-28252,20450,-10344,-18126,1864
1063,4560,4562,3751,5616,22329,-63,6263,9378,-28252,20258,-10428,-18060,1871
1064,4563,4565,3751,5616,22329,15,6263,9378,-28252,20258,-10428,-18060,1891
1065,4567,4568,3751,5616,22329,-79,6263,9378,-28252,20288,-10338,-18275,1893
1066,4570,4572,3751,5616,22329,-191,6263,9378,-28252,20342,-10392,-18191,1873
1067,4573,4575,3751,5616,22329,-127,6263,9378,-28252,20342,-10392,-18191,1860
1068,4577,4579,3751,5616,22329,0,6263,9378,-28252,20144,-10320,-18066,1873
1069,4580,4582,3751,5616,22329,0,6263,9378,-28252,20144,-10320,-18066,1890
1070,4583,4585,3751,5616,22329,-191,6263,9378,-28252,20264,-10272,-18048,1894
1071,4587,4589,3751,5616,22329,-175,6263,9378,-28252,20264,-10272,-18048,1874
1072,4590,4592,3751,5616,22329,-111,6263,9378,-28252,20288,-10123,-18245,1857
1073,4593,4595,3751,5616,22329,-255,6263,9378,-28252,20288,-10123,-18245,1870
1074,4597,4599,3751,5616,22329,127,6263,9378,-28252,20252,-10117,-18413,1892
1075,4600,4602,3751,5616,22329,-127,6263,9378,-28252,20252,-10117,-18413,1893
1076,4603,4605,3751,5616,22329,175,6263,9378,-28252,20126,-10171,-18287,1874
1077,4607,4609,3751,5616,22329,511,6263,9378,-28252,20126,-10171,-18287,1857
1078,4610,4612,3751,5616,22329,-47,6263,9378,-28252,20138,-10332,-18419,1874
1079,4614,4615,3751,5616,22329,-31,6263,9378,-28252,20138,-10332,-18419,1891
1080,4617,4619,3751,5616,22329,-63,6263,9378,-28252,20342,-10290,-18371,1892
1081,4620,4622,3751,5616,22329,-63,6263,9378,-28252,20342,-10290,-18371,1872
1082,4624,4625,3751,5616,22329,-255,6263,9378,-28252,20192,-10380,-18275,1862
1083,4627,4629,3751,5616,22329,0,6263,9378,-28252,20192,-10380,-18275,1873
1084,4630,4632,3751,5616,22329,-47,6263,9378,-28252,20168,-10458,-18401,1890
1085,4634,4635,3751,5616,22329,207,6263,9378,-28252,20168,-10458,-18401,1894
1086,4637,4639,3751,5616,22329,-47,6263,9378,-28252,20264,-10500,-18090,1874
1087,4640,4642,3751,5616,22329,0,6263,9378,-28252,20264,-10500,-18090,1859
1088,4644,4645,3751,5616,22329,15,6263,9378,-28252,20288,-10482,-18191,1872
1089,4647,4649,3751,5616,22329,-287,6263,9378,-28252,20288,-10482,-18191,1892
1090,4650,4652,3751,5616,22329,0,6263,9378,-28252,20246,-10428,-18144,1885
1091,4654,4655,3751,5616,22329,63,6263,9378,-28252,20246,-10428,-18144,1874
1092,4657,4659,3751,5616,22329,-191,6263,9378,-28252,20438,-10290,-17928,1862
1093,4660,4662,3751,5616,22329,0,6263,9378,-28252,20300,-10314,-18257,1874
1094,4664,4665,3751,5616,22329,-111,6263,9378,-28252,20300,-10314,-18257,1892
1095,4667,4669,3751,5616,22329,-191,6263,9378,-28252,20276,-10392,-18245,1888
1096,4670,4672,3751,5616,22329,95,6263,9378,-28252,20276,-10392,-18245,1872
1097,4674,4675,3751,5616,22329,15,6263,9378,-28252,20444,-10284,-18197,1863
1098,4677,4679,3751,5616,22329,0,6263,9378,-28252,20444,-10284,-18197,1874
1099,4680,4682,3751,5616,22329,-31,6263,9378,-28252,20312,-10260,-18395,1889
1100,4684,4685,3751,5616,22329,-191,6263,9378,-28252,20312,-10260,-18395,1892
1101,4687,4689,3751,5616,22329,63,6263,9378,-28252,20336,-10434,-18167,1874
1102,4690,4692,3751,5616,22329,-95,6263,9378,-28252,20336,-10434,-18167,1862
1103,4694,4696,3751,5616,22329,-223,6263,9378,-28252,20390,-10278,-18191,1874
1104,4697,4699,3751,5616,22329,47,6263,9378,-28252,20390,-10278,-18191,1893
1105,4700,4702,3751,5616,22329,-95,6263,9378,-28252,20240,-10446,-18359,1889
1106,4704,4706,3751,5616,22329,47,6263,9378,-28252,20240,-10446,-18359,1872
1107,4707,4709,3751,5616,22329,-79,6263,9378,-28252,20402,-10237,-18455,1854
1108,4710,4712,3751,5616,22329,-127,6263,9378,-28252,20402,-10237,-18455,1874
1109,4714,4716,3751,5616,22329,0,6263,9378,-28252,20222,-10362,-18491,1891
1110,4717,4719,3751,5616,22329,-79,6263,9378,-28252,20222,-10362,-18491,1887
1111,4720,4722,3751,5616,22329,-15,6263,9378,-28252,20282,-10201,-18275,1873
1112,4724,4726,3751,5616,22329,-335,6263,9378,-28252,20282,-10201,-18275,1863
1113,4727,4729,3751,5616,22329,-207,6263,9378,-28252,20270,-10272,-18365,1875
1114,4731,4732,3751,5616,22329,-79,6263,9378,-28252,20270,-10272,-18365,1894
1115,4734,4736,3751,5616,22329,-127,6263,9378,-28252,20282,-10314,-18299,1891
1116,4737,4739,3751,5616,22329,-47,6263,9378,-28252,20282,-10314,-18299,1869
1117,4741,4742,3751,5616,22329,-159,6263,9378,-28252,20468,-10350,-18383,1864
1118,4744,4746,3751,5616,22329,143,6263,9378,-28252,20527,-10434,-18359,1875
1119,4747,4749,3751,5616,22329,0,6263,9378,-28252,20527,-10434,-18359,1892
1120,4751,4752,3751,5616,22329,-31,6263,9378,-28252,20485,-10225,-18419,1890
1121,4754,4756,3751,5616,22329,-95,6263,9378,-28252,20485,-10225,-18419,1871
1122,4757,4759,3751,5616,22329,-95,6263,9378,-28252,20258,-10350,-18197,1864
1123,4761,4762,3751,5616,22329,79,6263,9378,-28252,20258,-10350,-18197,1873
1124,4764,4766,3751,5616,22329,15,6263,9378,-28252,20360,-10338,-18287,1892
1125,4767,4769,3751,5616,22329,-63,6263,9378,-28252,20360,-10338,-18287,1891
1126,4771,4772,3751,5616,22329,159,6263,9378,-28252,20318,-10308,-18473,1870
1127,4774,4776,3751,5616,22329,-15,6263,9378,-28252,20318,-10308,-18473,1861
1128,4777,4779,3751,5616,22329,47,6263,9378,-28252,20318,-10464,-18251,1873
1129,4781,4782,3751,5616,22329,-47,6263,9378,-28252,20318,-10464,-18251,1892
1130,4784,4786,3751,5616,22329,0,6263,9378,-28252,20156,-10350,-18557,1888
1131,4787,4789,3751,5616,22329,-31,6263,9378,-28252,20156,-10350,-18557,1870
1132,4791,4792,3751,5616,22329,-159,6263,9378,-28252,20318,-10344,-18479,1860
1133,4794,4796,3751,5616,22329,-127,6263,9378,-28252,20318,-10344,-18479,1874
1134,4797,4799,3751,5616,22329,-95,6263,9378,-28252,20306,-10482,-18425,1892
1135,4801,4802,3751,5616,22329,63,6263,9378,-28252,20306,-10482,-18425,1891
1136,4804,4806,3751,5616,22329,47,6263,9378,-28252,20330,-10464,-18497,1870
1137,4807,4809,3751,5616,22329,-95,6263,9378,-28252,20330,-10464,-18497,1855
1138,4811,4813,3751,5616,22329,255,6263,9378,-28252,20372,-10326,-18156,1875
1139,4814,4816,3751,5616,22329,-63,6263,9378,-28252,20372,-10326,-18156,1894
1140,4817,4819,3751,5616,22329,111,6263,9378,-28252,20222,-10476,-18305,1891
1141,4821,4823,3751,5616,22329,79,6263,9378,-28252,20222,-10476,-18305,1870
1142,4824,4826,3751,5616,22329,-319,6263,9378,-28252,20348,-10416,-18012,1856
1143,4827,4829,3751,5616,22329,95,6263,9378,-28252,20348,-10416,-18012,1877
1144,4831,4833,3751,5616,22329,-239,6263,9378,-28252,20336,-10368,-18209,1894
1145,4834,4836,3751,5616,22329,-175,6263,9378,-28252,20426,-10296,-18132,1886
1146,4837,4839,3751,5616,22329,79,6263,9378,-28252,20426,-10296,-18132,1871
1147,4841,4843,3751,5616,22329,-143,6263,9378,-28252,20252,-10201,-18269,1860
1148,4844,4846,3751,5616,22329,-111,6263,9378,-28252,20252,-10201,-18269,1876
1149,4848,4849,3751,5616,22329,-207,6263,9378,-28252,20204,-10536,-18251,1894
1150,4851,4853,3751,5616,22329,0,6263,9378,-28252,20204,-10536,-18251,1891
1151,4854,4856,3751,5616,22329,-111,6263,9378,-28252,20210,-10446,-17850,1868
1152,4858,4859,3751,5616,22329,63,6263,9378,-28252,20210,-10446,-17850,1855
1153,4861,4863,3751,5616,22329,-111,6263,9378,-28252,20258,-10326,-18389,1877
1154,4864,4866,3751,5616,22329,15,6263,9378,-28252,20258,-10326,-18389,1891
1155,4868,4869,3751,5616,22329,-287,6263,9378,-28252,20306,-10248,-18395,1889
1156,4871,4873,3751,5616,22329,-143,6263,9378,-28252,20306,-10248,-18395,1871
1157,4874,4876,3751,5616,22329,15,6263,9378,-28252,20348,-10374,-18317,1860
1158,4878,4879,3751,5616,22329,-271,6263,9378,-28252,20348,-10374,-18317,1876
1159,4881,4883,3751,5616,22329,175,6263,9378,-28252,20318,-10278,-18527,1889
1160,4884,4886,3751,5616,22329,-95,6263,9378,-28252,20318,-10278,-18527,1889
1161,4888,4889,3751,5616,22329,15,6263,9378,-28252,20174,-10380,-18622,1870
1162,4891,4893,3751,5616,22329,-47,6263,9378,-28252,20174,-10380,-18622,1860
1163,4894,4896,3751,5616,22329,-31,6263,9378,-28252,20306,-10452,-18215,1877
1164,4898,4899,3751,5616,22329,15,6263,9378,-28252,20306,-10452,-18215,1889
1165,4901,4903,3751,5616,22329,0,6263,9378,-28252,20222,-10416,-18383,1889
1166,4904,4906,3751,5616,22329,-159,6263,9378,-28252,20222,-10416,-18383,1868
1167,4908,4909,3751,5616,22329,-143,6263,9378,-28252,20216,-10278,-18323,1863
1168,4911,4913,3751,5616,22329,-63,6263,9378,-28252,20216,-10278,-18323,1877
1169,4914,4916,3751,5616,22329,15,6263,9378,-28252,20264,-10260,-18587,1892
1170,4918,4919,3751,5616,22329,-159,6263,9378,-28252,20378,-10332,-18102,1884
1171,4921,4923,3751,5616,22329,-63,6263,9378,-28252,20378,-10332,-18102,1870
1172,4924,4926,3751,5616,22329,-95,6263,9378,-28252,20521,-10338,-18156,1859
1173,4928,4930,3751,5616,22329,-351,6263,9378,-28252,20521,-10338,-18156,1878
1174,4931,4933,3751,5616,22329,15,6263,9378,-28252,20192,-10248,-18359,1890
1175,4934,4936,3751,5616,22329,0,6263,9378,-28252,20192,-10248,-18359,1888
1176,4938,4940,3751,5616,22329,-143,6263,9378,-28252,20270,-10350,-18114,1870
1177,4941,4943,3751,5616,22329,127,6263,9378,-28252,20270,-10350,-18114,1863
1178,4944,4946,3751,5616,22329,-175,6263,9378,-28252,20150,-10302,-18233,1878
1179,4948,4950,3751,5616,22329,-127,6263,9378,-28252,20150,-10302,-18233,1894
1180,4951,4953,3751,5616,22329,-143,6263,9378,-28252,20360,-10242,-18257,1887
1181,4954,4956,3751,5616,22329,-47,6263,9378,-28252,20360,-10242,-18257,1869
1182,4958,4960,3751,5616,22329,-207,6263,9378,-28252,20330,-10326,-18209,1865
1183,4961,4963,3751,5616,22329,-47,6263,9378,-28252,20330,-10326,-18209,1879
1184,4965,4966,3751,5616,22329,15,6263,9378,-28252,20372,-10105,-17916,1890
1185,4968,4970,3751,5616,22329,175,6263,9378,-28252,20372,-10105,-17916,1889
1186,4971,4973,3751,5616,22329,-127,6263,9378,-28252,20414,-10290,-18048,1866
1187,4975,4976,3751,5616,22329,-95,6263,9378,-28252,20414,-10290,-18048,1862
1188,4978,4980,3751,5616,22329,-47,6263,9378,-28252,20384,-10392,-18233,1878
1189,4981,4983,3751,5616,22329,-95,6263,9378,-28252,20384,-10392,-18233,1892
1190,4985,4986,3751,5616,22329,-463,6263,9378,-28252,20228,-10434,-17994,1888
1191,4988,4990,3751,5616,22329,-175,6263,9378,-28252,20228,-10434,-17994,1867
1192,4991,4993,3751,5616,22329,-63,6263,9378,-28252,20228,-10458,-18167,1862
1193,4995,4996,3751,5616,22329,63,6263,9378,-28252,20228,-10458,-18167,1878
1194,4998,5000,3751,5616,22329,31,6263,9378,-28252,20108,-10506,-18251,1898
1195,5001,5003,3751,5616,22329,0,6263,9378,-28252,20108,-10506,-18162,1884
1196,5005,5006,3751,5616,22329,63,6263,9378,-28252,20342,-10578,-18162,1866
1197,5008,5010,3751,5616,22329,-63,6263,9378,-28252,20294,-10386,-17988,1862
1198,5011,5013,3751,5616,22329,159,6263,9378,-28252,20294,-10386,-17988,1877
1199,5015,5016,3751,5616,22329,-319,6263,9378,-28252,20156,-10548,-17754,1893
1200,5018,5020,3751,5616,22329,79,6263,9378,-28252,20156,-10548,-17754,1886
1201,5021,5023,3751,5616,22329,-63,6263,9378,-28252,20198,-10356,-17940,1866
1202,5025,5026,3751,5616,22329,-63,6263,9378,-28252,20198,-10356,-17940,1866
1203,5028,5030,3751,5616,22329,0,6263,9378,-28252,20090,-10368,-18090,1878
1204,5031,5033,3751,5616,22329,15,6263,9378,-28252,20090,-10368,-18090,1894
1205,5035,5036,3751,5616,22329,0,6263,9378,-28252,20150,-10434,-18209,1882
1206,5038,5040,3751,5616,22329,-191,6263,9378,-28252,20150,-10434,-18209,1867
1207,5041,5043,3751,5616,22329,-63,6263,9378,-28252,20144,-10500,-18102,1866
1208,5045,5047,3751,5616,22329,-79,6263,9378,-28252,20144,-10500,-18102,1879
1209,5048,5050,3751,5616,22329,-207,6263,9378,-28252,20132,-10656,-17988,1897
1210,5051,5053,3751,5616,22329,-79,6263,9378,-28252,20132,-10656,-17988,1883
1211,5055,5057,3751,5616,22329,-79,6263,9378,-28252,20114,-10428,-18006,1867
1212,5058,5060,3751,5616,22329,-111,6263,9378,-28252,20114,-10428,-18006,1856
1213,5061,5063,3751,5616,22329,-47,6263,9378,-28252,20072,-10632,-18245,1880
1214,5065,5067,3751,5616,22329,-575,6263,9378,-28252,20072,-10632,-18245,1895
1215,5068,5070,3751,5616,22329,111,6263,9378,-28252,20282,-10320,-18305,1885
1216,5071,5073,3751,5616,22329,-63,6263,9378,-28252,20282,-10320,-18305,1867
1217,5075,5077,3751,5616,22329,-111,6263,9378,-28252,20180,-10512,-18395,1854
1218,5078,5080,3751,5616,22329,-159,6263,9378,-28252,20180,-10512,-18395,1880
1219,5082,5083,3751,5616,22329,-191,6263,9378,-28252,20252,-10338,-18293,1893
1220,5085,5087,3751,5616,22329,-143,6263,9378,-28252,20252,-10338,-18293,1887
1221,5088,5090,3751,5616,22329,-63,6263,9378,-28252,20264,-10368,-18389,1865
1222,5092,5093,3751,5616,22329,-63,6263,9378,-28252,20204,-10398,-18329,1862
1223,5095,5097,3751,5616,22329,-191,6263,9378,-28252,20204,-10398,-18329,1880
1224,5098,5100,3751,5616,22329,-111,6263,9378,-28252,20264,-10326,-18359,1897
1225,5102,5103,3751,5616,22329,-63,6263,9378,-28252,20264,-10326,-18359,1885
1226,5105,5107,3751,5616,22329,0,6263,9378,-28252,20288,-10314,-18221,1867
1227,5108,5110,3751,5616,22329,31,6263,9378,-28252,20288,-10314,-18221,1864
1228,5112,5113,3751,5616,22329,-111,6263,9378,-28252,20390,-10242,-18425,1879
1229,5115,5117,3751,5616,22329,-111,6263,9378,-28252,20390,-10242,-18425,1889
1230,5118,5120,3751,5616,22329,0,6263,9378,-28252,20186,-10488,-18455,1883
1231,5122,5123,3751,5616,22329,-79,6263,9378,-28252,20186,-10488,-18455,1865
1232,5125,5127,3751,5616,22329,159,6263,9378,-28252,20306,-10374,-18569,1865
1233,5128,5130,3751,5616,22329,-63,6263,9378,-28252,20306,-10374,-18569,1878
1234,5132,5133,3751,5616,22329,-95,6263,9378,-28252,20342,-10416,-18569,1886
1235,5135,5137,3751,5616,22329,-191,6263,9378,-28252,20342,-10416,-18569,1885
1236,5138,5140,3751,5616,22329,-31,6263,9378,-28252,20306,-10308,-18383,1867
1237,5142,5143,3751,5616,22329,-207,6263,9378,-28252,20306,-10308,-18383,1858
1238,5145,5147,3751,5616,22329,-175,6263,9378,-28252,20114,-10446,-18359,1883
1239,5148,5150,3751,5616,22329,-47,6263,9378,-28252,20114,-10446,-18359,1893
1240,5152,5153,3751,5616,22329,0,6263,9378,-28252,20318,-10470,-18479,1884
1241,5155,5157,3751,5616,22329,127,6263,9378,-28252,20318,-10470,-18479,1864
1242,5158,5160,3751,5616,22329,-79,6263,9378,-28252,20252,-10506,-18467,1866
1243,5162,5164,3751,5616,22329,223,6263,9378,-28252,20252,-10506,-18467,1883
1244,5165,5167,3751,5616,22329,207,6263,9378,-28252,20336,-10398,-18521,1896
1245,5168,5170,3751,5616,22329,-255,6263,9378,-28252,20336,-10398,-18521,1883
1246,5172,5174,3751,5616,22329,95,6263,9378,-28252,20324,-10344,-18203,1867
1247,5175,5177,3751,5616,22329,-303,6263,9378,-28252,20324,-10452,-18227,1865
1248,5178,5180,3751,5616,22329,-31,6263,9378,-28252,20114,-10452,-18227,1879
1249,5182,5184,3751,5616,22329,-367,6263,9378,-28252,20282,-10338,-18102,1897
1250,5185,5187,3751,5616,22329,-95,6263,9378,-28252,20282,-10338,-18102,1881
1251,5188,5190,3751,5616,22329,0,6263,9378,-28252,20384,-10404,-18335,1865
1252,5192,5194,3751,5616,22329,191,6263,9378,-28252,20384,-10404,-18335,1859
1253,5195,5197,3751,5616,22329,15,6263,9378,-28252,20306,-10434,-18485,1884
1254,5199,5200,3751,5616,22329,-95,6263,9378,-28252,20306,-10434,-18485,1894
1255,5202,5204,3751,5616,22329,0,6263,9378,-28252,20390,-10171,-18329,1883
1256,5205,5207,3751,5616,22329,-191,6263,9378,-28252,20390,-10171,-18329,1864
1257,5209,5210,3751,5616,22329,-127,6263,9378,-28252,20276,-10213,-17964,1865
1258,5212,5214,3751,5616,22329,-159,6263,9378,-28252,20276,-10213,-17964,1883
1259,5215,5217,3751,5616,22329,79,6263,9378,-28252,20342,-10368,-18042,1896
1260,5219,5220,3751,5616,22329,-63,6263,9378,-28252,20342,-10368,-18042,1884
1261,5222,5224,3751,5616,22329,191,6263,9378,-28252,20503,-10254,-18221,1865
1262,5225,5227,3751,5616,22329,-63,6263,9378,-28252,20503,-10254,-18221,1866
1263,5229,5230,3751,5616,22329,-63,6263,9378,-28252,20306,-10225,-18263,1881
1264,5232,5234,3751,5616,22329,0,6263,9378,-28252,20306,-10225,-18263,1890
1265,5235,5237,3751,5616,22329,-175,6263,9378,-28252,20384,-10177,-18593,1882
1266,5239,5240,3751,5616,22329,-191,6263,9378,-28252,20384,-10177,-18593,1865
1267,5242,5244,3751,5616,22329,-31,6263,9378,-28252,20503,-10260,-18347,1864
1268,5245,5247,3751,5616,22329,-191,6263,9378,-28252,20503,-10260,-18347,1882
1269,5249,5250,3751,5616,22329,-95,6263,9378,-28252,20545,-10362,-18323,1897
1270,5252,5254,3751,5616,22329,15,6263,9378,-28252,20545,-10362,-18323,1883
1271,5255,5257,3751,5616,22329,-63,6263,9378,-28252,20306,-10254,-18227,1863
1272,5259,5260,3751,5616,22329,0,6263,9378,-28252,20306,-10254,-18227,1858
1273,5262,5264,3751,5616,22329,-63,6263,9378,-28252,20342,-10356,-18431,1883
1274,5265,5267,3751,5616,22329,-191,6263,9378,-28252,20533,-10320,-18281,1895
1275,5269,5270,3751,5616,22329,-287,6263,9378,-28252,20533,-10320,-18281,1882
1276,5272,5274,3751,5616,22329,-383,6263,9378,-28252,20384,-10356,-18311,1864
1277,5275,5277,3751,5616,22329,31,6263,9378,-28252,20384,-10356,-18311,1866
1278,5279,5281,3751,5616,22329,15,6263,9378,-28252,20198,-10296,-18173,1883
1279,5282,5284,3751,5616,22329,-223,6263,9378,-28252,20198,-10296,-18173,1895
1280,5285,5287,3751,5616,22329,0,6263,9378,-28252,20270,-10344,-18203,1882
1281,5289,5291,3751,5616,22329,-191,6263,9378,-28252,20270,-10344,-18203,1864
1282,5292,5294,3751,5616,22329,-303,6263,9378,-28252,20162,-10374,-18006,1866
1283,5295,5297,3751,5616,22329,-95,6263,9378,-28252,20162,-10374,-18006,1883
1284,5299,5301,3751,5616,22329,-287,6263,9378,-28252,20180,-10177,-18287,1896
1285,5302,5304,3751,5616,22329,-335,6263,9378,-28252,20180,-10177,-18287,1881
1286,5305,5307,3751,5616,22329,-47,6263,9378,-28252,20150,-10344,-18090,1862
1287,5309,5311,3751,5616,22329,95,6263,9378,-28252,20150,-10344,-18090,1864
1288,5312,5314,3751,5616,22329,-79,6263,9378,-28252,20186,-10446,-18042,1883
1289,5316,5317,3751,5616,22329,0,6263,9378,-28252,20186,-10446,-18042,1888
1290,5319,5321,3751,5616,22329,-47,6263,9378,-28252,20246,-10278,-17916,1879
1291,5322,5324,3751,5616,22329,111,6263,9378,-28252,20246,-10278,-17916,1863
1292,5326,5327,3751,5616,22329,0,6263,9378,-28252,20138,-10350,-18096,1865
1293,5329,5331,3751,5616,22329,47,6263,9378,-28252,20138,-10350,-18096,1885
1294,5332,5334,3751,5616,22329,-47,6263,9378,-28252,20222,-10386,-18132,1891
1295,5336,5337,3751,5616,22329,-63,6263,9378,-28252,20222,-10386,-18132,1881
1296,5339,5341,3751,5616,22329,-143,6263,9378,-28252,20264,-10260,-18126,1865
1297,5342,5344,3751,5616,22329,-31,6263,9378,-28252,20264,-10260,-18126,1865
1298,5346,5347,3751,5616,22329,95,6263,9378,-28252,20270,-10290,-18006,1884
1299,5349,5351,3751,5616,22329,-255,6263,9378,-28252,20270,-10290,-18287,1888
1300,5352,5354,3751,5616,22329,-15,6263,9378,-28252,20384,-10171,-18287,1881
1301,5356,5357,3751,5616,22329,31,6263,9378,-28252,20432,-10213,-18215,1863
1302,5359,5361,3751,5616,22329,15,6263,9378,-28252,20432,-10213,-18215,1861
1303,5362,5364,3751,5616,22329,63,6263,9378,-28252,20414,-10380,-18162,1885
1304,5366,5367,3751,5616,22329,-111,6263,9378,-28252,20414,-10380,-18162,1898
1305,5369,5371,3751,5616,22329,143,6263,9378,-28252,20312,-10410,-18335,1880
1306,5372,5374,3751,5616,22329,-175,6263,9378,-28252,20312,-10410,-18335,1864
1307,5376,5377,3751,5616,22329,15,6263,9378,-28252,20324,-10344,-18179,1865
1308,5379,5381,3751,5616,22329,-159,6263,9378,-28252,20324,-10344,-18179,1884
1309,5382,5384,3751,5616,22329,-79,6263,9378,-28252,20414,-10356,-18245,1889
1310,5386,5387,3751,5616,22329,-127,6263,9378,-28252,20414,-10356,-18245,1880
1311,5389,5391,3751,5616,22329,0,6263,9378,-28252,20312,-10404,-18335,1863
1312,5392,5394,3751,5616,22329,-175,6263,9378,-28252,20312,-10404,-18335,1862
1313,5396,5398,3751,5616,22329,-175,6263,9378,-28252,20270,-10254,-18138,1886
1314,5399,5401,3751,5616,22329,31,6263,9378,-28252,20270,-10254,-18138,1897
1315,5402,5404,3751,5616,22329,-47,6263,9378,-28252,20312,-10512,-18030,1879
1316,5406,5408,3751,5616,22329,-255,6263,9378,-28252,20312,-10512,-18030,1863
1317,5409,5411,3751,5616,22329,47,6263,9378,-28252,20342,-10488,-18054,1862
1318,5412,5414,3751,5616,22329,-63,6263,9378,-28252,20342,-10488,-18054,1885
1319,5416,5418,3751,5616,22329,47,6263,9378,-28252,20228,-10332,-18048,1888
1320,5419,5421,3751,5616,22329,-143,6263,9378,-28252,20228,-10332,-18048,1882
1321,5422,5424,3751,5616,22329,47,6263,9378,-28252,20360,-10290,-18431,1863
1322,5426,5428,3751,5616,22329,-287,6263,9378,-28252,20360,-10290,-18431,1864
1323,5429,5431,3751,5616,22329,-239,6263,9378,-28252,20348,-10398,-18323,1887
1324,5433,5434,3751,5616,22329,-95,6263,9378,-28252,20348,-10398,-18323,1898
1325,5436,5438,3751,5616,22329,-271,6263,9378,-28252,20378,-10410,-18365,1879
1326,5439,5441,3751,5616,22329,-95,6263,9378,-28252,20348,-10632,-18197,1860
1327,5443,5444,3751,5616,22329,63,6263,9378,-28252,20348,-10632,-18197,1861
1328,5446,5448,3751,5616,22329,47,6263,9378,-28252,20258,-10422,-18239,1887
1329,5449,5451,3751,5616,22329,95,6263,9378,-28252,20258,-10422,-18239,1897
1330,5453,5454,3751,5616,22329,47,6263,9378,-28252,20330,-10398,-18413,1880
1331,5456,5458,3751,5616,22329,-79,6263,9378,-28252,20330,-10398,-18413,1864
1332,5459,5461,3751,5616,22329,-31,6263,9378,-28252,20288,-10644,-18185,1865
1333,5463,5464,3751,5616,22329,-111,6263,9378,-28252,20288,-10644,-18185,1885
1334,5466,5468,3751,5616,22329,31,6263,9378,-28252,20186,-10488,-18359,1887
1335,5469,5471,3751,5616,22329,79,6263,9378,-28252,20186,-10488,-18359,1878
1336,5473,5474,3751,5616,22329,95,6263,9378,-28252,20258,-10620,-18275,1862
1337,5476,5478,3751,5616,22329,-159,6263,9378,-28252,20258,-10620,-18275,1860
1338,5479,5481,3751,5616,22329,-143,6263,9378,-28252,20186,-10542,-18365,1888
1339,5483,5484,3751,5616,22329,-15,6263,9378,-28252,20186,-10542,-18365,1894
1340,5486,5488,3751,5616,22329,-143,6263,9378,-28252,20258,-10614,-18413,1879
1341,5489,5491,3751,5616,22329,-143,6263,9378,-28252,20258,-10614,-18413,1860
1342,5493,5494,3751,5616,22329,-143,6263,9378,-28252,20210,-10458,-18126,1867
1343,5496,5498,3751,5616,22329,-175,6263,9378,-28252,20210,-10458,-18126,1887
1344,5499,5501,3751,5616,22329,0,6263,9378,-28252,20342,-10560,-18287,1895
1345,5503,5504,3751,5616,22329,-143,6263,9378,-28252,20342,-10560,-18287,1876
1346,5506,5508,3751,5616,22329,-79,6263,9378,-28252,20336,-10476,-18269,1865
1347,5509,5511,3751,5616,22329,0,6263,9378,-28252,20336,-10476,-18269,1866
1348,5513,5515,3751,5616,22329,0,6263,9378,-28252,20174,-10536,-18479,1885
1349,5516,5518,3751,5616,22329,-191,6263,9378,-28252,20174,-10536,-18479,1894
1350,5519,5521,3751,5616,22329,63,6263,9378,-28252,20258,-10530,-18371,1875
1351,5523,5525,3751,5616,22329,-207,6263,9378,-28252,20258,-10530,-18455,1859
1352,5526,5528,3751,5616,22329,-111,6263,9378,-28252,20426,-10332,-18455,1865
1353,5529,5531,3751,5616,22329,31,6263,9378,-28252,20276,-10398,-18401,1885
1354,5533,5535,3751,5616,22329,-143,6263,9378,-28252,20276,-10398,-18401,1886
1355,5536,5538,3751,5616,22329,0,6263,9378,-28252,20270,-10434,-18060,1876
1356,5539,5541,3751,5616,22329,47,6263,9378,-28252,20270,-10434,-18060,1861
1357,5543,5545,3751,5616,22329,-223,6263,9378,-28252,20270,-10470,-18156,1864
1358,5546,5548,3751,5616,22329,-319,6263,9378,-28252,20270,-10470,-18156,1887
1359,5550,5551,3751,5616,22329,-47,6263,9378,-28252,20288,-10434,-18138,1898
1360,5553,5555,3751,5616,22329,143,6263,9378,-28252,20288,-10434,-18138,1877
1361,5556,5558,3751,5616,22329,47,6263,9378,-28252,20342,-10350,-18048,1857
1362,5560,5561,3751,5616,22329,0,6263,9378,-28252,20342,-10350,-18048,1866
1363,5563,5565,3751,5616,22329,-79,6263,9378,-28252,20497,-10494,-18209,1888
1364,5566,5568,3751,5616,22329,-31,6263,9378,-28252,20497,-10494,-18209,1888
1365,5570,5571,3751,5616,22329,-287,6263,9378,-28252,20156,-10524,-18096,1878
1366,5573,5575,3751,5616,22329,-127,6263,9378,-28252,20156,-10524,-18096,1867
1367,5576,5578,3751,5616,22329,0,6263,9378,-28252,20468,-10500,-18179,1864
1368,5580,5581,3751,5616,22329,-127,6263,9378,-28252,20468,-10500,-18179,1887
1369,5583,5585,3751,5616,22329,95,6263,9378,-28252,20264,-10590,-18215,1892
1370,5586,5588,3751,5616,22329,-47,6263,9378,-28252,20264,-10590,-18215,1876
1371,5590,5591,3751,5616,22329,-159,6263,9378,-28252,20288,-10524,-18126,1861
1372,5593,5595,3751,5616,22329,95,6263,9378,-28252,20288,-10524,-18126,1866
1373,5596,5598,3751,5616,22329,0,6263,9378,-28252,20288,-10715,-18108,1888
1374,5600,5601,3751,5616,22329,-31,6263,9378,-28252,20288,-10715,-18108,1894
1375,5603,5605,3751,5616,22329,-159,6263,9378,-28252,20234,-10620,-18042,1876
1376,5606,5608,3751,5616,22329,-47,6263,9378,-28252,20234,-10620,-18042,1855
1377,5610,5611,3751,5616,22329,-31,6263,9378,-28252,20252,-10614,-18108,1864
1378,5613,5615,3751,5616,22329,-207,6263,9378,-28252,20306,-10662,-18251,1888
1379,5616,5618,3751,5616,22329,-223,6263,9378,-28252,20306,-10662,-18251,1896
1380,5620,5621,3751,5616,22329,-175,6263,9378,-28252,20402,-10644,-18215,1875
1381,5623,5625,3751,5616,22329,-255,6263,9378,-28252,20402,-10644,-18215,1865
1382,5626,5628,3751,5616,22329,95,6263,9378,-28252,20336,-10536,-18042,1864
1383,5630,5632,3751,5616,22329,0,6263,9378,-28252,20336,-10536,-18042,1887
1384,5633,5635,3751,5616,22329,47,6263,9378,-28252,20360,-10638,-18341,1887
1385,5636,5638,3751,5616,22329,31,6263,9378,-28252,20360,-10638,-18341,1876
1386,5640,5642,3751,5616,22329,143,6263,9378,-28252,20222,-10572,-18185,1864
1387,5643,5645,3751,5616,22329,0,6263,9378,-28252,20222,-10572,-18185,1867
1388,5646,5648,3751,5616,22329,-127,6263,9378,-28252,20198,-10512,-18287,1887
1389,5650,5652,3751,5616,22329,-207,6263,9378,-28252,20198,-10512,-18287,1891
1390,5653,5655,3751,5616,22329,-63,6263,9378,-28252,20294,-10470,-18084,1877
1391,5656,5658,3751,5616,22329,31,6263,9378,-28252,20294,-10470,-18084,1859
1392,5660,5662,3751,5616,22329,-111,6263,9378,-28252,20204,-10446,-17814,1867
1393,5663,5665,3751,5616,22329,-191,6263,9378,-28252,20204,-10446,-17814,1889
1394,5667,5668,3751,5616,22329,-111,6263,9378,-28252,20222,-10326,-18066,1889
1395,5670,5672,3751,5616,22329,-175,6263,9378,-28252,20222,-10326,-18066,1875
1396,5673,5675,3751,5616,22329,-95,6263,9378,-28252,20575,-10350,-17994,1862
1397,5677,5678,3751,5616,22329,-175,6263,9378,-28252,20575,-10350,-17994,1869
1398,5680,5682,3751,5616,22329,127,6263,9378,-28252,20354,-10314,-17964,1889
1399,5683,5685,3751,5616,22329,-47,6263,9378,-28252,20354,-10314,-17964,1884
1400,5687,5688,3751,5616,22329,-79,6263,9378,-28252,20366,-10398,-18275,1875
1401,5690,5692,3751,5616,22329,-175,6263,9378,-28252,20366,-10398,-18275,1861
1402,5693,5695,3751,5616,22329,175,6263,9378,-28252,20312,-10302,-18126,1871
1403,5697,5698,3751,5616,22329,15,6263,9378,-28252,20312,-10302,-18191,1886
1404,5700,5702,3751,5616,22329,-207,6263,9378,-28252,20372,-10356,-18191,1893
1405,5703,5705,3751,5616,22329,-175,6263,9378,-28252,20342,-10308,-18066,1875
1406,5707,5708,3751,5616,22329,-95,6263,9378,-28252,20342,-10308,-18066,1857
1407,5710,5712,3751,5616,22329,-159,6263,9378,-28252,20252,-10404,-18096,1867
1408,5713,5715,3751,5616,22329,143,6263,9378,-28252,20252,-10404,-18096,1889
1409,5717,5718,3751,5616,22329,-63,6263,9378,-28252,20204,-10368,-18138,1889
1410,5720,5722,3751,5616,22329,223,6263,9378,-28252,20204,-10368,-18138,1877
1411,5723,5725,3751,5616,22329,47,6263,9378,-28252,20300,-10314,-17760,1862
1412,5727,5728,3751,5616,22329,95,6263,9378,-28252,20300,-10314,-17760,1870
1413,5730,5732,3751,5616,22329,-143,6263,9378,-28252,20276,-10524,-17928,1889
1414,5733,5735,3751,5616,22329,95,6263,9378,-28252,20276,-10524,-17928,1892
1415,5737,5738,3751,5616,22329,-255,6263,9378,-28252,20312,-10398,-18030,1873
1416,5740,5742,3751,5616,22329,0,6263,9378,-28252,20312,-10398,-18030,1853
1417,5743,5745,3751,5616,22329,-79,6263,9378,-28252,20300,-10626,-17898,1870
1418,5747,5749,3751,5616,22329,0,6263,9378,-28252,20300,-10626,-17898,1889
1419,5750,5752,3751,5616,22329,335,6263,9378,-28252,20174,-10428,-17856,1891
1420,5753,5755,3751,5616,22329,143,6263,9378,-28252,20174,-10428,-17856,1873
1421,5757,5759,3751,5616,22329,-31,6263,9378,-28252,20348,-10344,-17713,1861
1422,5760,5762,3751,5616,22329,-223,6263,9378,-28252,20348,-10344,-17713,1870
1423,5763,5765,3751,5616,22329,0,6263,9378,-28252,20210,-10404,-17611,1889
1424,5767,5769,3751,5616,22329,0,6263,9378,-28252,20210,-10404,-17611,1886
1425,5770,5772,3751,5616,22329,95,6263,9378,-28252,20300,-10362,-17707,1875
1426,5773,5775,3751,5616,22329,-143,6263,9378,-28252,20300,-10362,-17707,1855
1427,5777,5779,3751,5616,22329,-15,6263,9378,-28252,20162,-10392,-17569,1872
1428,5780,5782,3751,5616,22329,31,6263,9378,-28252,20162,-10392,-17569,1890
1429,5784,5785,3751,5616,22329,15,6263,9378,-28252,20258,-10368,-17647,1893
1430,5787,5789,3751,5616,22329,-127,6263,9378,-28252,20372,-10362,-17497,1874
1431,5790,5792,3751,5616,22329,-335,6263,9378,-28252,20372,-10362,-17497,1857
1432,5794,5795,3751,5616,22329,79,6263,9378,-28252,20234,-10416,-17683,1873
1433,5797,5799,3751,5616,22329,0,6263,9378,-28252,20234,-10416,-17683,1887
1434,5800,5802,3751,5616,22329,-63,6263,9378,-28252,20438,-10248,-17599,1888
1435,5804,5805,3751,5616,22329,-191,6263,9378,-28252,20438,-10248,-17599,1874
1436,5807,5809,3751,5616,22329,31,6263,9378,-28252,20420,-10326,-17796,1864
1437,5810,5812,3751,5616,22329,191,6263,9378,-28252,20420,-10326,-17796,1872
1438,5814,5815,3751,5616,22329,-95,6263,9378,-28252,20288,-10410,-17952,1891
1439,5817,5819,3751,5616,22329,111,6263,9378,-28252,20288,-10410,-17952,1887
1440,5820,5822,3751,5616,22329,-271,6263,9378,-28252,20264,-10338,-18060,1872
1441,5824,5825,3751,5616,22329,-207,6263,9378,-28252,20264,-10338,-18060,1865
1442,5827,5829,3751,5616,22329,-111,6263,9378,-28252,20360,-10470,-18060,1871
1443,5830,5832,3751,5616,22329,95,6263,9378,-28252,20360,-10470,-18060,1889
1444,5834,5835,3751,5616,22329,-175,6263,9378,-28252,20144,-10308,-17988,1891
1445,5837,5839,3751,5616,22329,-271,6263,9378,-28252,20144,-10308,-17988,1874
1446,5840,5842,3751,5616,22329,-95,6263,9378,-28252,20420,-10248,-18006,1860
1447,5844,5845,3751,5616,22329,0,6263,9378,-28252,20420,-10248,-18006,1871
1448,5847,5849,3751,5616,22329,-399,6263,9378,-28252,20324,-10278,-17904,1891
1449,5850,5852,3751,5616,22329,0,6263,9378,-28252,20324,-10278,-17904,1883
1450,5854,5855,3751,5616,22329,-143,6263,9378,-28252,20300,-10219,-17742,1872
1451,5857,5859,3751,5616,22329,223,6263,9378,-28252,20300,-10219,-17742,1861
1452,5860,5862,3751,5616,22329,-159,6263,9378,-28252,20300,-10404,-18000,1869
1453,5864,5866,3751,5616,22329,-47,6263,9378,-28252,20300,-10404,-18000,1891
1454,5867,5869,3751,5616,22329,111,6263,9378,-28252,20342,-10392,-17922,1890
1455,5870,5872,3751,5616,22329,-159,6263,9378,-28252,20342,-10392,-17886,1873
1456,5874,5876,3751,5616,22329,0,6263,9378,-28252,20216,-10368,-17886,1857
1457,5877,5879,3751,5616,22329,-63,6263,9378,-28252,20312,-10458,-18042,1873
1458,5880,5882,3751,5616,22329,15,6263,9378,-28252,20312,-10458,-18042,1890
1459,5884,5886,3751,5616,22329,-31,6263,9378,-28252,20276,-10272,-18006,1891
1460,5887,5889,3751,5616,22329,-207,6263,9378,-28252,20276,-10272,-18006,1872
1461,5890,5892,3751,5616,22329,-63,6263,9378,-28252,20360,-10213,-18018,1863
1462,5894,5896,3751,5616,22329,0,6263,9378,-28252,20360,-10213,-18018,1870
1463,5897,5899,3751,5616,22329,-223,6263,9378,-28252,20384,-10326,-18162,1891
1464,5901,5902,3751,5616,22329,95,6263,9378,-28252,20384,-10326,-18162,1884
1465,5904,5906,3751,5616,22329,-47,6263,9378,-28252,20318,-10260,-18120,1872
1466,5907,5909,3751,5616,22329,0,6263,9378,-28252,20318,-10260,-18120,1863
1467,5911,5912,3751,5616,22329,-79,6263,9378,-28252,20282,-10506,-18156,1872
1468,5914,5916,3751,5616,22329,-175,6263,9378,-28252,20282,-10506,-18156,1891
1469,5917,5919,3751,5616,22329,-47,6263,9378,-28252,20294,-10326,-18078,1888
1470,5921,5922,3751,5616,22329,0,6263,9378,-28252,20294,-10326,-18078,1871
1471,5924,5926,3751,5616,22329,31,6263,9378,-28252,20288,-10272,-18138,1855
1472,5927,5929,3751,5616,22329,-239,6263,9378,-28252,20288,-10272,-18138,1873
1473,5931,5932,3751,5616,22329,-191,6263,9378,-28252,20366,-10332,-17946,1890
1474,5934,5936,3751,5616,22329,0,6263,9378,-28252,20366,-10332,-17946,1887
1475,5937,5939,3751,5616,22329,-15,6263,9378,-28252,20354,-10404,-17922,1870
1476,5941,5942,3751,5616,22329,63,6263,9378,-28252,20354,-10404,-17922,1855
1477,5944,5946,3751,5616,22329,47,6263,9378,-28252,20228,-10344,-18281,1874
1478,5947,5949,3751,5616,22329,31,6263,9378,-28252,20228,-10344,-18281,1892
1479,5951,5952,3751,5616,22329,47,6263,9378,-28252,20186,-10320,-18114,1889
1480,5954,5956,3751,5616,22329,-335,6263,9378,-28252,20186,-10320,-18114,1870
1481,5957,5959,3751,5616,22329,-191,6263,9378,-28252,20402,-10254,-18018,1857
1482,5961,5962,3751,5616,22329,-255,6263,9378,-28252,20258,-10231,-18191,1872
1483,5964,5966,3751,5616,22329,-79,6263,9378,-28252,20258,-10231,-18191,1892
1484,5967,5969,3751,5616,22329,-239,6263,9378,-28252,20204,-10302,-18144,1890
1485,5971,5972,3751,5616,22329,15,6263,9378,-28252,20204,-10302,-18144,1872
1486,5974,5976,3751,5616,22329,79,6263,9378,-28252,20360,-10237,-18167,1864
1487,5977,5979,3751,5616,22329,79,6263,9378,-28252,20360,-10237,-18167,1873
1488,5981,5983,3751,5616,22329,31,6263,9378,-28252,20222,-10141,-18215,1890
1489,5984,5986,3751,5616,22329,79,6263,9378,-28252,20222,-10141,-18215,1884
1490,5987,5989,3751,5616,22329,-191,6263,9378,-28252,20366,-10344,-18066,1870
1491,5991,5993,3751,5616,22329,0,6263,9378,-28252,20366,-10344,-18066,1858
1492,5994,5996,3751,5616,22329,0,6263,9378,-28252,20354,-10141,-18030,1875
1493,5997,5999,3751,5616,22329,-63,6263,9378,-28252,20354,-10141,-18030,1891
1494,6001,6003,3751,5616,22329,-111,6263,9378,-28252,20306,-10404,-18197,1890
1495,6004,6006,3751,5616,22329,-47,6263,9378,-28252,20306,-10404,-18197,1870
1496,6007,6009,3751,5616,22329,0,6263,9378,-28252,20360,-10284,-18030,1855
1497,6011,6013,3751,5616,22329,63,6263,9378,-28252,20360,-10284,-18030,1875
1498,6014,6016,3751,5616,22329,-95,6263,9378,-28252,20258,-10410,-18072,1893
1499,6018,6019,3751,5616,22329,63,6263,9378,-28252,20258,-10410,-18072,1889
1500,6021,6023,3751,5616,22329,-63,6263,9378,-28252,20282,-10248,-17964,1870
1501,6024,6026,3751,5616,22329,-127,6263,9378,-28252,20282,-10248,-17964,1858
1502,6028,6029,3751,5616,22329,47,6263,9378,-28252,20426,-10201,-18006,1874
1503,6031,6033,3751,5616,22329,0,6263,9378,-28252,20426,-10201,-18006,1892
1504,6034,6036,3751,5616,22329,-479,6263,9378,-28252,20228,-10207,-17898,1885
1505,6038,6039,3751,5616,22329,31,6263,9378,-28252,20228,-10207,-17898,1869
1506,6041,6043,3751,5616,22329,-63,6263,9378,-28252,20396,-10386,-17952,1864
1507,6044,6046,3751,5616,22329,0,6263,9378,-28252,20396,-10386,-17868,1874
1508,6048,6049,3751,5616,22329,-143,6263,9378,-28252,20521,-10320,-17868,1891
1509,6051,6053,3751,5616,22329,0,6263,9378,-28252,20330,-10410,-17964,1888
1510,6054,6056,3751,5616,22329,15,6263,9378,-28252,20330,-10410,-17964,1867
1511,6058,6059,3751,5616,22329,15,6263,9378,-28252,20390,-10476,-17730,1860
1512,6061,6063,3751,5616,22329,-111,6263,9378,-28252,20390,-10476,-17730,1873
1513,6064,6066,3751,5616,22329,-239,6263,9378,-28252,20390,-10440,-17671,1888
1514,6068,6069,3751,5616,22329,-159,6263,9378,-28252,20390,-10440,-17671,1887
1515,6071,6073,3751,5616,22329,31,6263,9378,-28252,20402,-10338,-17892,1869
1516,6074,6076,3751,5616,22329,175,6263,9378,-28252,20402,-10338,-17892,1853
1517,6078,6079,3751,5616,22329,0,6263,9378,-28252,20408,-10314,-17928,1875
1518,6081,6083,3751,5616,22329,-79,6263,9378,-28252,20408,-10314,-17928,1888
1519,6084,6086,3751,5616,22329,175,6263,9378,-28252,20294,-10284,-18012,1884
1520,6088,6089,3751,5616,22329,-47,6263,9378,-28252,20294,-10284,-18012,1870
1521,6091,6093,3751,5616,22329,-159,6263,9378,-28252,20414,-10404,-18060,1865
1522,6094,6096,3751,5616,22329,-175,6263,9378,-28252,20414,-10404,-18060,1877
1523,6098,6100,3751,5616,22329,-111,6263,9378,-28252,20456,-10410,-17988,1893
1524,6101,6103,3751,5616,22329,-63,6263,9378,-28252,20456,-10410,-17988,1887
1525,6104,6106,3751,5616,22329,31,6263,9378,-28252,20300,-10572,-18024,1867
1526,6108,6110,3751,5616,22329,79,6263,9378,-28252,20300,-10572,-18024,1865
1527,6111,6113,3751,5616,22329,-159,6263,9378,-28252,20420,-10500,-18084,1875
1528,6114,6116,3751,5616,22329,-95,6263,9378,-28252,20420,-10500,-18084,1888
1529,6118,6120,3751,5616,22329,-239,6263,9378,-28252,20360,-10440,-18245,1886
1530,6121,6123,3751,5616,22329,-79,6263,9378,-28252,20360,-10440,-18245,1869
1531,6124,6126,3751,5616,22329,-47,6263,9378,-28252,20342,-10428,-17982,1860
1532,6128,6130,3751,5616,22329,-191,6263,9378,-28252,20342,-10428,-17982,1875
1533,6131,6133,3751,5616,22329,0,6263,9378,-28252,20420,-10548,-18072,1887
1534,6135,6136,3751,5616,22329,-63,6263,9378,-28252,20420,-10548,-18239,1888
1535,6138,6140,3751,5616,22329,0,6263,9378,-28252,20420,-10548,-18239,1869
1536,6141,6143,3751,5616,22329,-63,6263,9378,-28252,20444,-10362,-17796,1860
1537,6145,6146,3751,5616,22329,-159,6263,9378,-28252,20444,-10362,-17796,1876
1538,6148,6150,3751,5616,22329,0,6263,9378,-28252,20330,-10374,-18102,1887
1539,6151,6153,3751,5616,22329,175,6263,9378,-28252,20330,-10374,-18102,1887
1540,6155,6156,3751,5616,22329,0,6263,9378,-28252,20282,-10428,-18185,1868
1541,6158,6160,3751,5616,22329,63,6263,9378,-28252,20282,-10428,-18185,1865
1542,6161,6163,3751,5616,22329,63,6263,9378,-28252,20324,-10308,-17868,1877
1543,6165,6166,3751,5616,22329,79,6263,9378,-28252,20324,-10308,-17868,1887
1544,6168,6170,3751,5616,22329,-223,6263,9378,-28252,20168,-10428,-17904,1886
1545,6171,6173,3751,5616,22329,-95,6263,9378,-28252,20168,-10428,-17904,1868
1546,6175,6176,3751,5616,22329,-95,6263,9378,-28252,20282,-10404,-17976,1866
1547,6178,6180,3751,5616,22329,0,6263,9378,-28252,20282,-10404,-17976,1875
1548,6181,6183,3751,5616,22329,-143,6263,9378,-28252,20324,-10524,-18144,1893
1549,6185,6186,3751,5616,22329,15,6263,9378,-28252,20324,-10524,-18144,1883
1550,6188,6190,3751,5616,22329,63,6263,9378,-28252,20342,-10548,-17982,1866
1551,6191,6193,3751,5616,22329,319,6263,9378,-28252,20342,-10548,-17982,1862
1552,6195,6196,3751,5616,22329,-95,6263,9378,-28252,20294,-10452,-17910,1876
1553,6198,6200,3751,5616,22329,-95,6263,9378,-28252,20294,-10452,-17910,1896
1554,6201,6203,3751,5616,22329,-271,6263,9378,-28252,20180,-10404,-18078,1881
1555,6205,6206,3751,5616,22329,95,6263,9378,-28252,20180,-10404,-18078,1867
1556,6208,6210,3751,5616,22329,-143,6263,9378,-28252,20342,-10398,-17862,1865
1557,6211,6213,3751,5616,22329,63,6263,9378,-28252,20342,-10398,-17862,1876
1558,6215,6217,3751,5616,22329,-47,6263,9378,-28252,20276,-10476,-17982,1893
1559,6218,6220,3751,5616,22329,-143,6263,9378,-28252,20276,-10219,-18000,1884
1560,6221,6223,3751,5616,22329,-159,6263,9378,-28252,20342,-10219,-18000,1865
1561,6225,6227,3751,5616,22329,-63,6263,9378,-28252,20360,-10225,-17844,1857
1562,6228,6230,3751,5616,22329,-47,6263,9378,-28252,20360,-10225,-17844,1877
1563,6231,6233,3751,5616,22329,-271,6263,9378,-28252,20144,-10362,-17988,1893
1564,6235,6237,3751,5616,22329,-191,6263,9378,-28252,20144,-10362,-17988,1884
1565,6238,6240,3751,5616,22329,-111,6263,9378,-28252,20396,-10392,-18042,1864
1566,6241,6243,3751,5616,22329,159,6263,9378,-28252,20396,-10392,-18042,1860
1567,6245,6247,3751,5616,22329,-47,6263,9378,-28252,20150,-10416,-18054,1877
1568,6248,6250,3751,5616,22329,-159,6263,9378,-28252,20150,-10416,-18054,1887
1569,6252,6253,3751,5616,22329,0,6263,9378,-28252,20234,-10290,-18054,1881
